patientId;holterMac;flexMac;;;;;;;;;;;;;;;;;;;;
;CA:F3:0B:1E:33:78;D3:4A:5C:52:80:78;;;;;;;;;;;;;;;;;;;;
receivedTimeStamp;timeStamp;red;ir;green;adxl_accX;adxl_accY;adxl_accZ;lsm_accelX;lsm_accelY;lsm_accelZ;lsm_gyroX;lsm_gyroY;lsm_gyroZ;ecg;flex_lsm_accelX;flex_lsm_accelY;flex_lsm_accelZ;flex_lsm_gyroX;flex_lsm_gyroY;flex_lsm_gyroZ;flex_cmd;flexTimeStamp
310.0;213.8;;;;;;;;;;;;;;;;;;;;17;0.1
310.0;213.8;;;;;;;;;;;;;;;;;13.485367;0.6065554;0.04196295;;127.4
310.0;213.8;;;;;;;;;;;;;;0.1015656;0.93313396;-0.2169866;;;;;127.4
310.0;213.8;;;;;;;;;;;;;;;;;-5.584887;-16.937773;-7.27485;;127.4
310.0;213.8;;;;;;;;;;;;;;0.10522782;0.9637745;-0.23340556;;;;;127.4
310.0;213.8;;;;;;;;;;;;;;;;;-63.890503;-84.90631;-60.930202;;137.0
310.0;213.8;;;;;;;;;;;;;;0.1053499;0.9615772;-0.24323252;;;;;137.0
310.0;213.8;;;;;;;;;;;;;;;;;-122.24952;-124.988556;-119.68978;;137.0
310.0;213.8;;;;;;;;;;;;;;0.10467849;0.95669425;-0.25281534;;;;;137.0
372.0;215.0;;;;;;;;;;;;;;;;;-59.907833;-124.988556;-75.83469;;146.7
372.0;215.0;;;;;;;;;;;;;;0.107852414;0.95126194;-0.2583697;;;;;146.7
372.0;215.0;;;;;;;;;;;;;;;;;4.1848507;-124.988556;-25.276955;;146.7
372.0;215.0;;;;;;;;;;;;;;0.10895108;0.94106877;-0.2595294;;;;;146.7
372.0;215.0;;;;;;;;;;;;;;;;;-0.40818506;-105.075226;-15.957365;;156.4
372.0;215.0;;;;;;;;;;;;;;0.10968352;0.9355144;-0.26056704;;;;;156.4
372.0;215.0;;;;;;;;;;;;;;;;;-7.4198127;-37.83151;8.983886;;156.4
372.0;215.0;;;;;;;;;;;;;;0.11090426;0.93148595;-0.26319164;;;;;156.4
372.0;215.0;;;;;;;;;;;;;;;;;-7.854701;-32.235176;10.4831085;;166.0
372.0;215.0;;;;;;;;;;;;;;0.111880854;0.9301431;-0.2642903;;;;;166.0
372.0;215.0;;;;;;;;;;;;;;;;;-7.587664;-32.208473;10.082552;;166.0
372.0;215.0;;;;;;;;;;;;;;0.1114536;0.9292886;-0.26648763;;;;;166.0
372.0;274.2;;;;;;;;;;;;;;;;;-7.1985536;-32.132175;10.074923;;175.6
372.0;274.2;;;;;;;;;;;;;;0.11279641;0.9292886;-0.27460554;;;;;175.6
372.0;274.2;;;;;;;;;;;;;;;;;-6.4851832;-32.03299;9.529405;;175.6
372.0;274.2;;;;;;;;;;;;;;0.114200264;0.9303262;-0.28205207;;;;;175.6
372.0;274.2;;;;;;;;;;;;;;;;;-5.84048;-32.12073;9.250923;;185.3
372.0;274.2;;;;;;;;;;;;;;0.11725211;0.9327067;-0.28748435;;;;;185.3
372.0;274.2;;;;;;;;;;;;;;;;;-5.2911468;-32.12836;9.075441;;185.3
372.0;274.2;;;;;;;;;;;;;;0.116763815;0.93398845;-0.28827783;;;;;185.3
372.0;274.2;;;;;;;;;;;;;;;;;-4.7837768;-32.177956;8.552812;;194.8
372.0;274.2;;;;;;;;;;;;;;0.11981567;0.93649095;-0.2920011;;;;;194.8
372.0;274.2;;;;;;;;;;;;;;;;;-4.2458873;-32.07114;8.140813;;194.8
372.0;274.2;;;;;;;;;;;;;;0.124332406;0.94174016;-0.29328287;;;;;194.8
453.0;275.0;;;;;;;;;;;;;;;;;-3.711814;-31.712547;7.9577017;;204.5
453.0;275.0;;;;;;;;;;;;;;0.12988678;0.94802696;-0.2920011;;;;;204.5
453.0;275.0;;;;;;;;;;;;;;;;;-3.3646657;-31.376842;7.587664;;204.5
453.0;275.0;;;;;;;;;;;;;;0.13727225;0.9515061;-0.29114658;;;;;204.5
453.0;275.0;;;;;;;;;;;;;;;;;-3.3417768;-30.796991;7.3587756;;214.1
453.0;275.0;;;;;;;;;;;;;;0.1445967;0.9553514;-0.28833887;;;;;214.1
453.0;275.0;;;;;;;;;;;;;;;;;-3.379925;-29.953917;7.1108127;;214.1
453.0;275.0;;;;;;;;;;;;;;0.15076144;0.9551073;-0.28662986;;;;;214.1
453.0;275.0;;;;;;;;;;;;;;;;;-3.4104435;-28.920103;6.557665;;223.7
453.0;275.0;;;;;;;;;;;;;;0.15808588;0.9580371;-0.28699607;;;;;223.7
453.0;275.0;;;;;;;;;;;;;;;;;-3.4295175;-27.718435;6.122776;;223.7
453.0;275.0;;;;;;;;;;;;;;0.16089359;0.9527879;-0.28949857;;;;;223.7
453.0;334.6;;;;;;;;;;;;;;;;;-3.322703;-26.196325;5.607776;;233.3
453.0;334.6;;;;;;;;;;;;;;0.16333507;0.9499191;-0.28754538;;;;;233.3
453.0;334.6;;;;;;;;;;;;;;;;;-2.9831843;-24.628439;4.970702;;233.3
453.0;334.6;;;;;;;;;;;;;;0.16498306;0.95211643;-0.28730124;;;;;233.3
453.0;334.6;;;;;;;;;;;;;;;;;-2.8611102;-22.652363;4.5777764;;242.9
453.0;334.6;;;;;;;;;;;;;;0.16528825;0.9505295;-0.28510392;;;;;242.9
453.0;334.6;;;;;;;;;;;;;;;;;-2.727592;-20.634327;4.036073;;242.9
453.0;334.6;;;;;;;;;;;;;;0.16650899;0.9508957;-0.2846156;;;;;242.9
453.0;334.6;;;;;;;;;;;;;;;;;-2.4109623;-18.154697;3.4104435;;252.6
453.0;334.6;;;;;;;;;;;;;;0.16064943;0.95376444;-0.2827235;;;;;252.6
453.0;334.6;;;;;;;;;;;;;;;;;-2.2850735;-15.77807;2.8572955;;252.6
453.0;334.6;;;;;;;;;;;;;;0.15655996;0.9580371;-0.28131962;;;;;252.6
491.0;335.9;;;;;;;;;;;;;;;;;-2.3804438;-13.412886;2.357555;;262.3
491.0;335.9;;;;;;;;;;;;;;0.15222633;0.95687735;-0.2807703;;;;;262.3
491.0;335.9;;;;;;;;;;;;;;;;;-2.8000731;-11.05533;1.7357402;;262.3
491.0;335.9;;;;;;;;;;;;;;0.14185004;0.95541245;-0.28089237;;;;;262.3
491.0;335.9;;;;;;;;;;;;;;;;;-3.2235177;-8.880886;1.1024811;;271.7
491.0;335.9;;;;;;;;;;;;;;0.13373211;0.96084476;-0.27564317;;;;;271.7
491.0;335.9;;;;;;;;;;;;;;;;;-3.810999;-6.85522;0.40055543;;271.7
491.0;335.9;;;;;;;;;;;;;;0.12988678;0.9624317;-0.27478865;;;;;271.7
491.0;335.9;;;;;;;;;;;;;;;;;-4.4785914;-4.8982205;-0.18692587;;281.4
491.0;335.9;;;;;;;;;;;;;;0.12475967;0.96279794;-0.2710654;;;;;281.4
491.0;335.9;;;;;;;;;;;;;;;;;-5.2529984;-2.8954437;-0.75914794;;281.4
491.0;335.9;;;;;;;;;;;;;;0.12543108;0.9613941;-0.26996672;;;;;281.4
491.0;395.0;;;;;;;;;;;;;;;;;-5.8061466;-1.0986663;-1.3771478;;291.0
491.0;395.0;;;;;;;;;;;;;;0.12537004;0.9571825;-0.26667073;;;;;291.0
491.0;395.0;;;;;;;;;;;;;;;;;-6.183813;0.26703694;-1.9074068;;291.0
491.0;395.0;;;;;;;;;;;;;;0.12726219;0.95242167;-0.27118748;;;;;291.0
491.0;395.0;;;;;;;;;;;;;;;;;-5.9053316;1.2245551;-2.4643695;;300.7
491.0;395.0;;;;;;;;;;;;;;0.12781152;0.94485307;-0.27729118;;;;;300.7
491.0;395.0;;;;;;;;;;;;;;;;;-5.0851464;2.006592;-3.0671103;;300.7
491.0;395.0;;;;;;;;;;;;;;0.12585834;0.94485307;-0.2834559;;;;;300.7
491.0;395.0;;;;;;;;;;;;;;;;;-4.333628;2.7085178;-3.7995543;;310.2
491.0;395.0;;;;;;;;;;;;;;0.12262337;0.94515824;-0.28388318;;;;;310.2
491.0;395.0;;;;;;;;;;;;;;;;;-4.032258;3.6774805;-4.5510726;;310.2
491.0;395.0;;;;;;;;;;;;;;0.116641745;0.9469283;-0.27558213;;;;;310.2
553.0;395.9;;;;;;;;;;;;;;;;;-4.280221;4.7265544;-5.2911468;;319.8
553.0;395.9;;;;;;;;;;;;;;0.11102634;0.94680625;-0.26593828;;;;;319.8
553.0;395.9;;;;;;;;;;;;;;;;;-4.8409986;5.53148;-5.916776;;319.8
553.0;395.9;;;;;;;;;;;;;;0.10882901;0.9439985;-0.25818658;;;;;319.8
553.0;395.9;;;;;;;;;;;;;;;;;-5.409406;5.8900723;-6.504257;;329.5
553.0;395.9;;;;;;;;;;;;;;0.11047701;0.9424116;-0.250618;;;;;329.5
553.0;395.9;;;;;;;;;;;;;;;;;-5.8519244;6.004517;-6.96585;;329.5
553.0;395.9;;;;;;;;;;;;;;0.11450545;0.94222844;-0.24433118;;;;;329.5
553.0;395.9;;;;;;;;;;;;;;;;;-6.14948;6.008332;-7.2176275;;339.1
553.0;395.9;;;;;;;;;;;;;;0.1264687;0.9454634;-0.23603015;;;;;339.1
553.0;395.9;;;;;;;;;;;;;;;;;-6.5881834;6.126591;-7.4732203;;339.1
553.0;395.9;;;;;;;;;;;;;;0.1394696;0.9488815;-0.22705771;;;;;339.1
553.0;455.3;;;;;;;;;;;;;;;;;-7.206183;6.3592944;-7.6448865;;348.7
553.0;455.3;;;;;;;;;;;;;;0.15570544;0.9544359;-0.21857357;;;;;348.7
553.0;455.3;;;;;;;;;;;;;;;;;-7.6715903;6.7522206;-7.7135534;;348.7
553.0;455.3;;;;;;;;;;;;;;0.17188025;0.9594409;-0.2120426;;;;;348.7
553.0;455.3;;;;;;;;;;;;;;;;;-7.965331;7.423628;-7.721183;;358.4
553.0;455.3;;;;;;;;;;;;;;0.18536943;0.9675588;-0.20422986;;;;;358.4
553.0;455.3;;;;;;;;;;;;;;;;;-8.484145;8.156072;-7.8508863;;358.4
553.0;455.3;;;;;;;;;;;;;;0.19592883;0.9739067;-0.19428083;;;;;358.4
553.0;455.3;;;;;;;;;;;;;;;;;-9.014404;9.083072;-7.89285;;367.9
553.0;455.3;;;;;;;;;;;;;;0.20252083;0.9762871;-0.18439284;;;;;367.9
553.0;455.3;;;;;;;;;;;;;;;;;-9.685812;9.891811;-8.026368;;367.9
553.0;455.3;;;;;;;;;;;;;;0.20673238;0.97811824;-0.17365032;;;;;367.9
613.0;456.1;;;;;;;;;;;;;;;;;-10.570848;10.513627;-8.243813;;377.6
613.0;456.1;;;;;;;;;;;;;;0.21033357;0.9742729;-0.16559343;;;;;377.6
613.0;456.1;;;;;;;;;;;;;;;;;-11.45207;10.876034;-8.423109;;377.6
613.0;456.1;;;;;;;;;;;;;;0.21277505;0.9677419;-0.15997803;;;;;377.6
613.0;456.1;;;;;;;;;;;;;;;;;-11.993774;10.986664;-8.556626;;387.3
613.0;456.1;;;;;;;;;;;;;;0.21497238;0.95986813;-0.16321298;;;;;387.3
613.0;456.1;;;;;;;;;;;;;;;;;-11.932737;10.6814785;-8.659627;;387.3
613.0;456.1;;;;;;;;;;;;;;0.21735282;0.95059055;-0.17017122;;;;;387.3
613.0;456.1;;;;;;;;;;;;;;;;;-11.26133;10.055849;-8.621479;;396.9
613.0;456.1;;;;;;;;;;;;;;0.21802424;0.94247264;-0.18408765;;;;;396.9
613.0;456.1;;;;;;;;;;;;;;;;;-10.441145;9.094516;-8.655812;;396.9
613.0;456.1;;;;;;;;;;;;;;0.2207709;0.934843;-0.19660024;;;;;396.9
613.0;516.1;;;;;;;;;;;;;;;;;-8.777886;8.224739;-8.705404;;406.6
613.0;516.1;;;;;;;;;;;;;;0.22168645;0.9288614;-0.21112704;;;;;406.6
613.0;516.1;;;;;;;;;;;;;;;;;-7.0688496;7.4694057;-8.800775;;406.6
613.0;516.1;;;;;;;;;;;;;;0.2245552;0.928312;-0.22602008;;;;;406.6
613.0;516.1;;;;;;;;;;;;;;;;;-5.787072;7.1375165;-8.987701;;416.3
613.0;516.1;;;;;;;;;;;;;;0.22815637;0.9279458;-0.23499252;;;;;416.3
613.0;516.1;;;;;;;;;;;;;;;;;-4.863888;7.3244424;-9.331035;;416.3
613.0;516.1;;;;;;;;;;;;;;0.23010956;0.9290445;-0.23950927;;;;;416.3
613.0;516.1;;;;;;;;;;;;;;;;;-4.3450727;7.904294;-9.601887;;425.8
613.0;516.1;;;;;;;;;;;;;;0.23096408;0.93325603;-0.24073;;;;;425.8
613.0;516.1;;;;;;;;;;;;;;;;;-3.746147;8.651998;-9.926145;;425.8
613.0;516.1;;;;;;;;;;;;;;0.23041475;0.9407636;-0.24182867;;;;;425.8
674.0;516.9;;;;;;;;;;;;;;;;;-3.5287027;9.483627;-10.338145;;435.4
674.0;516.9;;;;;;;;;;;;;;0.23126927;0.9475387;-0.23786126;;;;;435.4
674.0;516.9;;;;;;;;;;;;;;;;;-3.6927397;10.494553;-10.586108;;435.4
674.0;516.9;;;;;;;;;;;;;;0.23084201;0.9565722;-0.2313303;;;;;435.4
674.0;516.9;;;;;;;;;;;;;;;;;-4.127629;11.738182;-10.876034;;445.1
674.0;516.9;;;;;;;;;;;;;;0.22858363;0.9647511;-0.22296824;;;;;445.1
674.0;516.9;;;;;;;;;;;;;;;;;-4.8982205;13.054293;-10.982849;;445.1
674.0;516.9;;;;;;;;;;;;;;0.22809534;0.97415084;-0.21820734;;;;;445.1
674.0;516.9;;;;;;;;;;;;;;;;;-5.6993318;14.278848;-11.009553;;454.7
674.0;516.9;;;;;;;;;;;;;;0.22443312;0.98245186;-0.2186346;;;;;454.7
674.0;516.9;;;;;;;;;;;;;;;;;-6.645406;15.377514;-10.971405;;454.7
674.0;516.9;;;;;;;;;;;;;;0.21955016;0.9916074;-0.219306;;;;;454.7
674.0;530.7;;;;;;;;;;;;;;;;;-7.4083686;16.239662;-10.750145;;464.3
674.0;530.7;;;;;;;;;;;;;;0.21308023;0.9967345;-0.21741386;;;;;464.3
674.0;530.7;;;;;;;;;;;;;;;;;-8.404035;16.895811;-10.410626;;464.3
674.0;530.7;;;;;;;;;;;;;;0.20239876;0.9998474;-0.21692556;;;;;464.3
674.0;530.7;;;;;;;;;;;;;;;;;-9.449294;17.288734;-10.067293;;474.0
674.0;530.7;;;;;;;;;;;;;;0.19531846;1.0002747;-0.2156438;;;;;474.0
674.0;530.7;;;;;;;;;;;;;;;;;-10.76159;17.60155;-9.716331;;474.0
674.0;530.7;;;;;;;;;;;;;;0.18488114;0.9941099;-0.21607105;;;;;474.0
674.0;530.7;;;;;;;;;;;;;;;;;-12.0052185;17.658772;-9.334849;;483.6
674.0;530.7;;;;;;;;;;;;;;0.17462692;0.9841609;-0.21314128;;;;;483.6
674.0;530.7;;;;;;;;;;;;;;;;;-13.035218;17.441328;-9.060183;;483.6
674.0;530.7;;;;;;;;;;;;;;0.16492203;0.9692068;-0.2164983;;;;;483.6
736.0;576.0;;;;;;;;;;;;;;;;;-13.683737;16.853848;-9.041108;;493.2
736.0;576.0;;;;;;;;;;;;;;0.15784173;0.95162815;-0.2186346;;;;;493.2
736.0;576.0;;;;;;;;;;;;;;;;;-14.030885;15.968811;-9.140294;;493.2
736.0;576.0;;;;;;;;;;;;;;0.15015107;0.93478197;-0.22504349;;;;;493.2
736.0;576.0;;;;;;;;;;;;;;;;;-13.9965515;15.14481;-9.468368;;503.0
736.0;576.0;;;;;;;;;;;;;;0.14551225;0.923307;-0.23639637;;;;;503.0
736.0;576.0;;;;;;;;;;;;;;;;;-13.70281;14.595477;-9.926145;;503.0
736.0;576.0;;;;;;;;;;;;;;0.14142278;0.9148228;-0.24884793;;;;;503.0
736.0;576.0;;;;;;;;;;;;;;;;;-13.203071;14.381847;-10.570848;;512.5
736.0;576.0;;;;;;;;;;;;;;0.13617359;0.9108554;-0.26026186;;;;;512.5
736.0;576.0;;;;;;;;;;;;;;;;;-12.703329;14.679403;-11.2384405;;512.5
736.0;576.0;;;;;;;;;;;;;;0.1309244;0.9116489;-0.2722251;;;;;512.5
736.0;591.4;;;;;;;;;;;;;;;;;-12.260812;15.270699;-12.031922;;522.2
736.0;591.4;;;;;;;;;;;;;;0.12524797;0.91512805;-0.28119755;;;;;522.2
736.0;591.4;;;;;;;;;;;;;;;;;-11.825923;16.163366;-12.779626;;522.2
736.0;591.4;;;;;;;;;;;;;;0.12012085;0.92141485;-0.28931546;;;;;522.2
736.0;591.4;;;;;;;;;;;;;;;;;-11.215552;17.136143;-13.527329;;531.9
736.0;591.4;;;;;;;;;;;;;;0.11633656;0.9284341;-0.2957854;;;;;531.9
736.0;591.4;;;;;;;;;;;;;;;;;-10.608997;18.108921;-14.202551;;531.9
736.0;591.4;;;;;;;;;;;;;;0.11059908;0.9350261;-0.30329296;;;;;531.9
736.0;591.4;;;;;;;;;;;;;;;;;-9.983367;19.04355;-14.835811;;541.5
736.0;591.4;;;;;;;;;;;;;;0.10864589;0.9407636;-0.30793175;;;;;541.5
736.0;591.4;;;;;;;;;;;;;;;;;-9.559923;19.886623;-15.362254;;541.5
736.0;591.4;;;;;;;;;;;;;;0.10992767;0.9466842;-0.3071383;;;;;541.5
796.0;636.4;;;;;;;;;;;;;;;;;-9.300516;20.69155;-15.781885;;551.2
796.0;636.4;;;;;;;;;;;;;;0.10974456;0.95254374;-0.30323192;;;;;551.2
796.0;636.4;;;;;;;;;;;;;;;;;-9.31196;21.439253;-16.067995;;551.2
796.0;636.4;;;;;;;;;;;;;;0.11102634;0.9578539;-0.29847103;;;;;551.2
796.0;636.4;;;;;;;;;;;;;;;;;-9.361553;22.087772;-16.338848;;560.8
796.0;636.4;;;;;;;;;;;;;;0.11389508;0.96481216;-0.29450363;;;;;560.8
796.0;636.4;;;;;;;;;;;;;;;;;-9.506516;22.94229;-16.529589;;560.8
796.0;636.4;;;;;;;;;;;;;;0.11603137;0.9722587;-0.29053622;;;;;560.8
796.0;636.4;;;;;;;;;;;;;;;;;-9.979552;23.785364;-16.773737;;570.4
796.0;636.4;;;;;;;;;;;;;;0.11609241;0.97506636;-0.28217414;;;;;570.4
796.0;636.4;;;;;;;;;;;;;;;;;-10.563219;24.624622;-17.075106;;570.4
796.0;636.4;;;;;;;;;;;;;;0.11780145;0.97451705;-0.27216408;;;;;570.4
796.0;651.4;;;;;;;;;;;;;;;;;-11.146885;25.551622;-17.418438;;580.1
796.0;651.4;;;;;;;;;;;;;;0.118228704;0.9717704;-0.26276436;;;;;580.1
796.0;651.4;;;;;;;;;;;;;;;;;-11.349071;26.711327;-17.685476;;580.1
796.0;651.4;;;;;;;;;;;;;;0.1163976;0.9720756;-0.2563555;;;;;580.1
796.0;651.4;;;;;;;;;;;;;;;;;-11.604663;27.741325;-17.998291;;589.8
796.0;651.4;;;;;;;;;;;;;;0.11346782;0.97158724;-0.24701682;;;;;589.8
796.0;651.4;;;;;;;;;;;;;;;;;-11.986145;28.33262;-18.215734;;589.8
796.0;651.4;;;;;;;;;;;;;;0.10791345;0.974456;-0.23084201;;;;;589.8
796.0;651.4;;;;;;;;;;;;;;;;;-12.939848;28.584398;-18.532366;;599.5
796.0;651.4;;;;;;;;;;;;;;0.09967345;0.97305214;-0.20960112;;;;;599.5
796.0;651.4;;;;;;;;;;;;;;;;;-14.107181;28.946806;-18.94818;;599.5
796.0;651.4;;;;;;;;;;;;;;0.08850368;0.9673757;-0.19672231;;;;;599.5
851.0;704.2;;;;;;;;;;;;;;;;;-14.984588;29.881437;-19.516586;;609.0
851.0;704.2;;;;;;;;;;;;;;0.08331553;0.9620655;-0.18921477;;;;;609.0
851.0;704.2;;;;;;;;;;;;;;;;;-15.396588;31.315807;-19.936216;;609.0
851.0;704.2;;;;;;;;;;;;;;0.07892086;0.96389663;-0.18640706;;;;;609.0
851.0;704.2;;;;;;;;;;;;;;;;;-15.545365;32.727287;-20.06592;;618.7
851.0;704.2;;;;;;;;;;;;;;0.07092502;0.9688406;-0.17987609;;;;;618.7
851.0;704.2;;;;;;;;;;;;;;;;;-15.709402;33.471176;-20.04303;;618.7
851.0;704.2;;;;;;;;;;;;;;0.06164739;0.9706107;-0.1662038;;;;;618.7
851.0;704.2;;;;;;;;;;;;;;;;;-16.037477;33.65429;-20.046844;;628.4
851.0;704.2;;;;;;;;;;;;;;0.054994356;0.9692068;-0.15124974;;;;;628.4
851.0;704.2;;;;;;;;;;;;;;;;;-16.426588;33.54366;-20.283363;;628.4
851.0;704.2;;;;;;;;;;;;;;0.048463393;0.9654225;-0.1353801;;;;;628.4
851.0;705.0;;;;;;;;;;;;;;;;;-16.987364;33.574177;-20.607624;;637.9
851.0;705.0;;;;;;;;;;;;;;0.046998505;0.9571215;-0.12286752;;;;;637.9
851.0;705.0;;;;;;;;;;;;;;;;;-17.521439;33.9938;-21.084475;;637.9
851.0;705.0;;;;;;;;;;;;;;0.045594655;0.94680625;-0.11438338;;;;;637.9
851.0;705.0;;;;;;;;;;;;;;;;;-17.42607;34.45158;-21.591846;;647.6
851.0;705.0;;;;;;;;;;;;;;0.051942505;0.9373455;-0.11090426;;;;;647.6
851.0;705.0;;;;;;;;;;;;;;;;;-16.453293;34.932247;-22.064884;;647.6
851.0;705.0;;;;;;;;;;;;;;0.053712577;0.9297769;-0.1081576;;;;;647.6
851.0;705.0;;;;;;;;;;;;;;;;;-15.175328;35.13062;-22.5074;;657.2
851.0;705.0;;;;;;;;;;;;;;0.055848874;0.9301431;-0.105166785;;;;;657.2
851.0;705.0;;;;;;;;;;;;;;;;;-14.061403;35.01236;-22.877438;;657.2
851.0;705.0;;;;;;;;;;;;;;0.057313763;0.92996;-0.09741508;;;;;657.2
971.0;764.5;;;;;;;;;;;;;;;;;-12.8711815;34.638508;-23.018585;;666.7
971.0;764.5;;;;;;;;;;;;;;0.06268502;0.93673515;-0.094485305;;;;;666.7
971.0;764.5;;;;;;;;;;;;;;;;;-12.028108;34.337135;-23.060549;;666.7
971.0;764.5;;;;;;;;;;;;;;0.06488235;0.94265574;-0.08868679;;;;;666.7
971.0;764.5;;;;;;;;;;;;;;;;;-11.322367;34.18073;-23.091066;;676.2
971.0;764.5;;;;;;;;;;;;;;0.06927702;0.94998014;-0.08471938;;;;;676.2
971.0;764.5;;;;;;;;;;;;;;;;;-10.818812;34.154026;-23.201696;;676.2
971.0;764.5;;;;;;;;;;;;;;0.071413316;0.95358133;-0.085573904;;;;;676.2
971.0;764.5;;;;;;;;;;;;;;;;;-10.460219;34.363842;-23.308512;;685.9
971.0;764.5;;;;;;;;;;;;;;0.07470931;0.9568163;-0.086245306;;;;;685.9
971.0;764.5;;;;;;;;;;;;;;;;;-10.021515;34.882656;-23.457289;;685.9
971.0;764.5;;;;;;;;;;;;;;0.07312235;0.95815915;-0.08917508;;;;;685.9
971.0;765.3;;;;;;;;;;;;;;;;;-9.472182;35.264137;-23.499252;;695.6
971.0;765.3;;;;;;;;;;;;;;0.070192575;0.9594409;-0.090823084;;;;;695.6
971.0;765.3;;;;;;;;;;;;;;;;;-9.117405;35.4091;-23.491623;;695.6
971.0;765.3;;;;;;;;;;;;;;0.0684225;0.95791495;-0.0905179;;;;;695.6
971.0;765.3;;;;;;;;;;;;;;;;;-8.728293;35.69521;-23.525955;;705.1
971.0;765.3;;;;;;;;;;;;;;0.06634724;0.9580371;-0.09033479;;;;;705.1
971.0;765.3;;;;;;;;;;;;;;;;;-8.041628;36.214027;-23.525955;;705.1
971.0;765.3;;;;;;;;;;;;;;0.060914945;0.95870847;-0.088930935;;;;;705.1
971.0;765.3;;;;;;;;;;;;;;;;;-7.271035;37.015137;-23.594624;;714.7
971.0;765.3;;;;;;;;;;;;;;0.051026948;0.96279794;-0.08941923;;;;;714.7
971.0;765.3;;;;;;;;;;;;;;;;;-6.7941833;37.854397;-23.47255;;714.7
971.0;765.3;;;;;;;;;;;;;;0.039613027;0.9690237;-0.089236125;;;;;714.7
976.0;878.0;;;;;;;;;;;;;;;;;-6.672109;38.52962;-23.136845;;724.4
976.0;878.0;;;;;;;;;;;;;;0.03418073;0.9710379;-0.086489454;;;;;724.4
976.0;878.0;;;;;;;;;;;;;;;;;-6.9544053;39.23154;-22.724844;;724.4
976.0;878.0;;;;;;;;;;;;;;0.024231697;0.9784234;-0.082583085;;;;;724.4
976.0;878.0;;;;;;;;;;;;;;;;;-7.019257;39.609207;-22.698141;;734.1
976.0;878.0;;;;;;;;;;;;;;0.013000885;0.9846492;-0.0783105;;;;;734.1
976.0;878.0;;;;;;;;;;;;;;;;;-7.2252574;39.582504;-22.930845;;734.1
976.0;878.0;;;;;;;;;;;;;;0.008728294;0.9839778;-0.080141604;;;;;734.1
976.0;878.0;;;;;;;;;;;;;;;;;-6.920072;39.746544;-23.174994;;743.7
976.0;878.0;;;;;;;;;;;;;;0.0040284432;0.98355055;-0.08417005;;;;;743.7
976.0;878.0;;;;;;;;;;;;;;;;;-7.0116277;40.23484;-23.3314;;743.7
976.0;878.0;;;;;;;;;;;;;;8.5451826E-4;0.9821467;-0.0860622;;;;;743.7
976.0;878.8;;;;;;;;;;;;;;;;;-7.2634053;40.997803;-23.514511;;753.3
976.0;878.8;;;;;;;;;;;;;;-6.714072E-4;0.97830135;-0.08709983;;;;;753.3
976.0;878.8;;;;;;;;;;;;;;;;;-7.37785;41.99347;-23.689993;;753.3
976.0;878.8;;;;;;;;;;;;;;-4.2725913E-4;0.9729301;-0.08905301;;;;;753.3
976.0;878.8;;;;;;;;;;;;;;;;;-7.488479;42.844173;-23.827326;;762.9
976.0;878.8;;;;;;;;;;;;;;2.4414808E-4;0.97366256;-0.093264565;;;;;762.9
976.0;878.8;;;;;;;;;;;;;;;;;-7.3816648;43.645287;-24.021883;;762.9
976.0;878.8;;;;;;;;;;;;;;0.0048829615;0.9715262;-0.095583975;;;;;762.9
976.0;878.8;;;;;;;;;;;;;;;;;-7.3015537;44.373913;-24.17066;;772.5
976.0;878.8;;;;;;;;;;;;;;0.009399701;0.9715262;-0.10187078;;;;;772.5
976.0;878.8;;;;;;;;;;;;;;;;;-7.1108127;45.12543;-24.372845;;772.5
976.0;878.8;;;;;;;;;;;;;;0.008484146;0.96694845;-0.10821863;;;;;772.5
1033.0;880.0;;;;;;;;;;;;;;;;;-6.912442;45.75106;-24.533068;;782.1
1033.0;880.0;;;;;;;;;;;;;;0.009643849;0.96395767;-0.11224708;;;;;782.1
1033.0;880.0;;;;;;;;;;;;;;;;;-6.633961;46.3271;-24.723808;;782.1
1033.0;880.0;;;;;;;;;;;;;;0.012146367;0.95919675;-0.11450545;;;;;782.1
1033.0;880.0;;;;;;;;;;;;;;;;;-6.248665;46.73147;-24.967955;;791.7
1033.0;880.0;;;;;;;;;;;;;;0.0144657735;0.95559555;-0.11505478;;;;;791.7
1033.0;880.0;;;;;;;;;;;;;;;;;-5.882443;47.021393;-25.364697;;791.7
1033.0;880.0;;;;;;;;;;;;;;0.015625477;0.9543138;-0.11529893;;;;;791.7
1033.0;880.0;;;;;;;;;;;;;;;;;-5.645924;47.15491;-25.727104;;801.2
1033.0;880.0;;;;;;;;;;;;;;0.0144657735;0.95162815;-0.11572619;;;;;801.2
1033.0;880.0;;;;;;;;;;;;;;;;;-5.237739;47.364727;-26.051363;;801.2
1033.0;880.0;;;;;;;;;;;;;;0.011963256;0.95242167;-0.11566515;;;;;801.2
1033.0;892.9;;;;;;;;;;;;;;;;;-4.8028507;47.582172;-26.249733;;810.8
1033.0;892.9;;;;;;;;;;;;;;0.0081789605;0.95522934;-0.11413923;;;;;810.8
1033.0;892.9;;;;;;;;;;;;;;;;;-4.4747763;47.54784;-26.467178;;810.8
1033.0;892.9;;;;;;;;;;;;;;0.008789331;0.9564501;-0.110965304;;;;;810.8
1033.0;892.9;;;;;;;;;;;;;;;;;-4.093295;47.353283;-26.673178;;820.4
1033.0;892.9;;;;;;;;;;;;;;0.003051851;0.95883054;-0.10791345;;;;;820.4
1033.0;892.9;;;;;;;;;;;;;;;;;-3.8148136;47.22358;-26.814325;;820.4
1033.0;892.9;;;;;;;;;;;;;;0.0010986663;0.95974606;-0.11017182;;;;;820.4
1033.0;892.9;;;;;;;;;;;;;;;;;-3.4104435;46.98706;-27.020327;;830.1
1033.0;892.9;;;;;;;;;;;;;;-0.0054322947;0.96444595;-0.109500416;;;;;830.1
1033.0;892.9;;;;;;;;;;;;;;;;;-3.0098882;46.643726;-27.203438;;830.1
1033.0;892.9;;;;;;;;;;;;;;-0.006836146;0.96383554;-0.11139256;;;;;830.1
1094.0;945.6;;;;;;;;;;;;;;;;;-2.582629;46.540726;-27.500992;;839.7
1094.0;945.6;;;;;;;;;;;;;;-0.011108737;0.96493423;-0.11120945;;;;;839.7
1094.0;945.6;;;;;;;;;;;;;;;;;-2.311777;46.452988;-27.829065;;839.7
1094.0;945.6;;;;;;;;;;;;;;-0.013000885;0.9646901;-0.11517686;;;;;839.7
1094.0;945.6;;;;;;;;;;;;;;;;;-1.9417402;46.47969;-28.294474;;849.1
1094.0;945.6;;;;;;;;;;;;;;-0.01660207;0.96493423;-0.11566515;;;;;849.1
1094.0;945.6;;;;;;;;;;;;;;;;;-1.8120365;46.50258;-28.714102;;849.1
1094.0;945.6;;;;;;;;;;;;;;-0.018189032;0.9632862;-0.11792352;;;;;849.1
1094.0;945.6;;;;;;;;;;;;;;;;;-1.9493698;46.63991;-29.225288;;858.8
1094.0;945.6;;;;;;;;;;;;;;-0.017700735;0.9605396;-0.11847285;;;;;858.8
1094.0;945.6;;;;;;;;;;;;;;;;;-3.2044435;47.00232;-29.629658;;858.8
1094.0;945.6;;;;;;;;;;;;;;-0.0080568865;0.9376507;-0.11413923;;;;;858.8
1094.0;953.1;;;;;;;;;;;;;;;;;-6.9353313;47.585987;-29.694511;;868.5
1094.0;953.1;;;;;;;;;;;;;;0.003295999;0.9279458;-0.12616351;;;;;868.5
1094.0;953.1;;;;;;;;;;;;;;;;;-0.38148138;47.830135;-29.759363;;868.5
1094.0;953.1;;;;;;;;;;;;;;-0.0126957;1.0220039;-0.13629566;;;;;868.5
1094.0;953.1;;;;;;;;;;;;;;;;;1.8578143;47.395245;-29.995878;;878.1
1094.0;953.1;;;;;;;;;;;;;;-0.0397351;1.0043641;-0.10034486;;;;;878.1
1094.0;953.1;;;;;;;;;;;;;;;;;-2.2469254;45.457317;-31.758324;;878.1
1094.0;953.1;;;;;;;;;;;;;;-0.048402358;0.9543138;-0.11774041;;;;;878.1
1094.0;953.1;;;;;;;;;;;;;;;;;-0.24796289;44.339577;-33.36436;;887.8
1094.0;953.1;;;;;;;;;;;;;;-0.03869747;0.97036654;-0.12866604;;;;;887.8
1094.0;953.1;;;;;;;;;;;;;;;;;-0.80111086;44.183174;-34.44395;;887.8
1094.0;953.1;;;;;;;;;;;;;;-0.045289468;0.9801935;-0.11999878;;;;;887.8
1152.0;998.4;;;;;;;;;;;;;;;;;-2.0561848;43.504135;-35.500656;;897.3
1152.0;998.4;;;;;;;;;;;;;;-0.06140324;0.9895932;-0.09955138;;;;;897.3
1152.0;998.4;;;;;;;;;;;;;;;;;-3.0251474;42.07358;-36.66036;;897.3
1152.0;998.4;;;;;;;;;;;;;;-0.06903287;0.9816584;-0.091677606;;;;;897.3
1152.0;998.4;;;;;;;;;;;;;;;;;-2.475814;40.406506;-38.026066;;907.0
1152.0;998.4;;;;;;;;;;;;;;-0.06903287;0.97903377;-0.09338664;;;;;907.0
1152.0;998.4;;;;;;;;;;;;;;;;;-0.9765923;39.769432;-39.532913;;907.0
1152.0;998.4;;;;;;;;;;;;;;-0.06756798;0.98538166;-0.092471085;;;;;907.0
1152.0;998.4;;;;;;;;;;;;;;;;;0.13733329;39.41084;-40.559097;;916.6
1152.0;998.4;;;;;;;;;;;;;;-0.06549272;0.99862665;-0.0839259;;;;;916.6
1152.0;998.4;;;;;;;;;;;;;;;;;0.32425916;38.83099;-41.379284;;916.6
1152.0;998.4;;;;;;;;;;;;;;-0.06427198;1.0093081;-0.07757805;;;;;916.6
1152.0;999.6;;;;;;;;;;;;;;;;;-0.20218512;38.7814;-42.26432;;926.3
1152.0;999.6;;;;;;;;;;;;;;-0.06079287;1.0132755;-0.07470931;;;;;926.3
1152.0;999.6;;;;;;;;;;;;;;;;;0.099185154;39.117096;-42.744987;;926.3
1152.0;999.6;;;;;;;;;;;;;;-0.059938353;1.020722;-0.07226783;;;;;926.3
1152.0;999.6;;;;;;;;;;;;;;;;;0.839259;39.117096;-43.27525;;935.8
1152.0;999.6;;;;;;;;;;;;;;-0.061281167;1.0316477;-0.07647938;;;;;935.8
1152.0;999.6;;;;;;;;;;;;;;;;;1.6403699;38.93399;-44.30906;;935.8
1152.0;999.6;;;;;;;;;;;;;;-0.061952576;1.0400097;-0.078005314;;;;;935.8
1152.0;999.6;;;;;;;;;;;;;;;;;2.5330362;38.541065;-45.09491;;945.4
1152.0;999.6;;;;;;;;;;;;;;-0.052491836;1.0439161;-0.085329756;;;;;945.4
1152.0;999.6;;;;;;;;;;;;;;;;;3.5515916;38.525806;-45.865505;;945.4
1152.0;999.6;;;;;;;;;;;;;;-0.04998932;1.0448316;-0.08264413;;;;;945.4
1212.0;1059.1;;;;;;;;;;;;;;;;;4.280221;38.93399;-46.47969;;955.0
1212.0;1059.1;;;;;;;;;;;;;;-0.037049472;1.0457473;-0.08508561;;;;;955.0
1212.0;1059.1;;;;;;;;;;;;;;;;;5.4399247;39.983063;-46.59032;;955.0
1212.0;1059.1;;;;;;;;;;;;;;-0.03009125;1.047029;-0.08398694;;;;;955.0
1212.0;1059.1;;;;;;;;;;;;;;;;;6.7445908;41.039764;-46.395763;;964.7
1212.0;1059.1;;;;;;;;;;;;;;-0.01678518;1.052034;-0.08526871;;;;;964.7
1212.0;1059.1;;;;;;;;;;;;;;;;;8.369701;42.516098;-45.48021;;964.7
1212.0;1059.1;;;;;;;;;;;;;;-0.0076296274;1.0473952;-0.086794645;;;;;964.7
1212.0;1059.1;;;;;;;;;;;;;;;;;10.071108;44.36628;-44.79354;;974.4
1212.0;1059.1;;;;;;;;;;;;;;-0.019592883;1.0542314;-0.07892086;;;;;974.4
1212.0;1059.1;;;;;;;;;;;;;;;;;10.837886;45.098724;-45.48021;;974.4
1212.0;1059.1;;;;;;;;;;;;;;-0.04547258;1.0504471;-0.056215096;;;;;974.4
1212.0;1059.9;;;;;;;;;;;;;;;;;7.084109;44.282356;-46.960358;;983.9
1212.0;1059.9;;;;;;;;;;;;;;-0.039002657;1.0348216;-0.062746055;;;;;983.9
1212.0;1059.9;;;;;;;;;;;;;;;;;5.050813;44.747765;-47.475357;;983.9
1212.0;1059.9;;;;;;;;;;;;;;-0.01843318;1.0388501;-0.07696768;;;;;983.9
1212.0;1059.9;;;;;;;;;;;;;;;;;6.9467754;46.36143;-47.81106;;993.5
1212.0;1059.9;;;;;;;;;;;;;;-0.017578661;1.056795;-0.07318339;;;;;993.5
1212.0;1059.9;;;;;;;;;;;;;;;;;7.8966646;47.860653;-48.29936;;993.5
1212.0;1059.9;;;;;;;;;;;;;;-0.0126957;1.0792565;-0.06103702;;;;;993.5
1212.0;1059.9;;;;;;;;;;;;;;;;;8.365887;49.882504;-48.219246;;1003.1
1212.0;1059.9;;;;;;;;;;;;;;-0.0073244423;1.0935392;-0.047853023;;;;;1003.1
1212.0;1059.9;;;;;;;;;;;;;;;;;9.063997;52.57195;-47.87591;;1003.1
1212.0;1059.9;;;;;;;;;;;;;;0.0;1.0992156;-0.04364147;;;;;1003.1
1216.0;1119.1;;;;;;;;;;;;;;;;;9.32722;54.902798;-47.8988;;1012.8
1216.0;1119.1;;;;;;;;;;;;;;-0.0018921476;1.1074557;-0.03790399;;;;;1012.8
1216.0;1119.1;;;;;;;;;;;;;;;;;9.670553;55.745872;-47.475357;;1012.8
1216.0;1119.1;;;;;;;;;;;;;;0.006653035;1.1240578;-0.035279397;;;;;1012.8
1216.0;1119.1;;;;;;;;;;;;;;;;;9.32722;56.878872;-47.33421;;1022.5
1216.0;1119.1;;;;;;;;;;;;;;0.0113528855;1.1285745;-0.033082064;;;;;1022.5
1216.0;1119.1;;;;;;;;;;;;;;;;;9.083072;58.46965;-47.372356;;1022.5
1216.0;1119.1;;;;;;;;;;;;;;0.006653035;1.1326029;-0.025635548;;;;;1022.5
1216.0;1119.1;;;;;;;;;;;;;;;;;9.403516;59.32417;-46.838284;;1032.1
1216.0;1119.1;;;;;;;;;;;;;;-6.714072E-4;1.1373028;-0.014709922;;;;;1032.1
1216.0;1119.1;;;;;;;;;;;;;;;;;9.117405;59.625538;-46.2241;;1032.1
1216.0;1119.1;;;;;;;;;;;;;;-0.011902219;1.1332133;-0.003295999;;;;;1032.1
1216.0;1120.3;;;;;;;;;;;;;;;;;8.335368;58.336132;-45.75106;;1041.7
1216.0;1120.3;;;;;;;;;;;;;;-0.02130192;1.1383404;0.010010071;;;;;1041.7
1216.0;1120.3;;;;;;;;;;;;;;;;;7.4846644;56.722466;-45.560318;;1041.7
1216.0;1120.3;;;;;;;;;;;;;;-0.040650655;1.1235085;0.017090365;;;;;1041.7
1216.0;1120.3;;;;;;;;;;;;;;;;;7.06122;54.280987;-44.984283;;1051.2
1216.0;1120.3;;;;;;;;;;;;;;-0.04174932;1.1099582;0.021668142;;;;;1051.2
1216.0;1120.3;;;;;;;;;;;;;;;;;6.721702;51.244392;-44.45402;;1051.2
1216.0;1120.3;;;;;;;;;;;;;;-0.08911405;1.0925627;0.021668142;;;;;1051.2
1216.0;1120.3;;;;;;;;;;;;;;;;;8.224739;47.021393;-44.59517;;1060.9
1216.0;1120.3;;;;;;;;;;;;;;-0.13293862;1.0826746;0.0038453322;;;;;1060.9
1216.0;1120.3;;;;;;;;;;;;;;;;;9.43022;42.031616;-43.565174;;1060.9
1216.0;1120.3;;;;;;;;;;;;;;-0.15112767;1.035493;-0.02026429;;;;;1060.9
1272.0;1129.8;;;;0.0;0.0;0.0;;;;;;;;;;;;;;;
1272.0;1129.8;;;;-0.0066452036;0.19355014;0.12202455;;;;;;;;;;;;;;;
1272.0;1129.8;;;;0.04655457;0.97538006;0.5431786;;;;;;;;;;;;;;;
1272.0;1129.8;;;;0.08249665;1.0806962;0.604786;;;;;;;;;;;;;;;
1272.0;1129.8;;;;0.09841539;1.0767709;0.6158448;;;;;;;;;;;;;;;
1272.0;1139.9;;;;0.11833955;1.0747606;0.63418585;;;;;;;;;;;;;;;
1272.0;1139.9;;;;0.12947847;1.0706407;0.6479836;;;;;;;;;;;;;;;
1272.0;1139.9;;;;0.14301683;1.0678293;0.657486;;;;;;;;;;;;;;;
1272.0;1139.9;;;;0.15843202;1.06065;0.6686211;;;;;;;;;;;;;;;
1272.0;1139.9;;;;0.17213441;1.052559;0.6757203;;;;;;;;;;;;;;;
1272.0;1141.1;57394;57490;7235;;;;;;;;;;;;;;;;;;
1272.0;1149.7;;;;0.18057634;1.0437852;0.6816941;;;;;;;;;;;;;;;
1272.0;1149.7;;;;0.18679048;1.0338441;0.6878014;;;;;;;;;;;;;;;
1272.0;1149.7;;;;0.19208911;1.0243646;0.6914826;;;;;;;;;;;;;;;
1272.0;1149.7;;;;0.19773486;1.012829;0.6897202;;;;;;;;;;;;;;;
1272.0;1149.7;;;;0.20908359;1.0051843;0.68404776;;;;;;;;;;;;;;;
1274.0;1159.9;;;;0.21519092;0.9967042;0.6747933;;;;;;;;;;;;;;;
1274.0;1159.9;;;;0.21652988;0.99169934;0.66616064;;;;;;;;;;;;;;;
1274.0;1159.9;;;;0.2156792;0.98967373;0.657219;;;;;;;;;;;;;;;
1274.0;1159.9;;;;0.21285632;0.98768246;0.6421738;;;;;;;;;;;;;;;
1274.0;1159.9;;;;0.20192721;0.9871446;0.6258393;;;;;;;;;;;;;;;
1274.0;1161.2;73883;73861;7241;;;;;;;;;;;;;;;;;;
1274.0;1167.5;;;;;;;;;;;;;0;;;;;;;;
1274.0;1167.5;;;;;;;;;;;;;0;;;;;;;;
1274.0;1167.5;;;;;;;;;;;;;-1;;;;;;;;
1274.0;1167.5;;;;;;;;;;;;;-2;;;;;;;;
1274.0;1167.5;;;;;;;;;;;;;-4;;;;;;;;
1274.0;1170.0;;;;0.18887332;0.9846574;0.61206824;;;;;;;;;;;;;;;
1274.0;1170.0;;;;0.17334749;0.9780847;0.5949822;;;;;;;;;;;;;;;
1274.0;1170.0;;;;0.15822221;0.97264874;0.5792504;;;;;;;;;;;;;;;
1274.0;1170.0;;;;0.14818956;0.96759427;0.5662156;;;;;;;;;;;;;;;
1274.0;1170.0;;;;0.13689043;0.9647752;0.55466086;;;;;;;;;;;;;;;
1278.0;1179.5;;;;;;;;;;;;;;;;;10.910368;36.973175;-42.28721;;1070.5
1278.0;1179.5;;;;;;;;;;;;;;-0.17035432;1.0003357;-0.046449173;;;;;1070.5
1278.0;1179.5;;;;;;;;;;;;;;;;;13.645589;32.387768;-41.283913;;1070.5
1278.0;1179.5;;;;;;;;;;;;;;-0.1810358;0.9617603;-0.0865505;;;;;1070.5
1278.0;1179.5;;;;;;;;;;;;;;;;;17.429884;28.416548;-40.494247;;1080.2
1278.0;1179.5;;;;;;;;;;;;;;-0.21210364;0.9149449;-0.11578722;;;;;1080.2
1278.0;1179.5;;;;;;;;;;;;;;;;;23.033844;23.541216;-39.456615;;1080.2
1278.0;1179.5;;;;;;;;;;;;;;-0.21906187;0.90755945;-0.16772974;;;;;1080.2
1278.0;1179.5;;;;;;;;;;;;;;;;;29.229103;21.046328;-37.53395;;1089.9
1278.0;1179.5;;;;;;;;;;;;;;-0.2351146;0.91238135;-0.18555254;;;;;1089.9
1278.0;1179.5;;;;;;;;;;;;;;;;;34.00525;20.538958;-37.549213;;1089.9
1278.0;1179.5;;;;;;;;;;;;;;-0.24048586;0.91653186;-0.22846156;;;;;1089.9
1278.0;1180.1;;;;0.12405397;0.9617311;0.5415574;;;;;;;;;;;;;;;
1278.0;1180.1;;;;0.11181642;0.9587594;0.5277291;;;;;;;;;;;;;;;
1278.0;1180.1;;;;0.10264589;0.95617306;0.51536566;;;;;;;;;;;;;;;
1278.0;1180.1;;;;0.098354355;0.9503137;0.50405127;;;;;;;;;;;;;;;
1278.0;1180.1;;;;0.09373856;0.94819653;0.49114233;;;;;;;;;;;;;;;
1279.0;1180.3;;;;;;;;;;;;;;;;;39.574875;23.083437;-35.966064;;1099.5
1279.0;1180.3;;;;;;;;;;;;;;-0.2494583;0.9290445;-0.23700674;;;;;1099.5
1279.0;1180.3;;;;;;;;;;;;;;;;;42.600025;26.261177;-33.875546;;1099.5
1279.0;1180.3;;;;;;;;;;;;;;-0.23993652;0.9566332;-0.24793237;;;;;1099.5
1279.0;1180.3;;;;;;;;;;;;;;;;;41.879025;31.361584;-31.434067;;1109.1
1279.0;1180.3;;;;;;;;;;;;;;-0.23444319;0.97384566;-0.24604023;;;;;1109.1
1279.0;1180.3;;;;;;;;;;;;;;;;;41.59673;35.035248;-30.457472;;1109.1
1279.0;1180.3;;;;;;;;;;;;;;-0.21045564;0.99826044;-0.2535478;;;;;1109.1
1279.0;1180.3;;;;;;;;;;;;;;;;;37.148655;42.50847;-29.564806;;1118.8
1279.0;1180.3;;;;;;;;;;;;;;-0.19562365;1.0018616;-0.24958037;;;;;1118.8
1279.0;1180.3;;;;;;;;;;;;;;;;;33.040104;53.41884;-28.855251;;1118.8
1279.0;1180.3;;;;;;;;;;;;;;-0.15826899;0.9772637;-0.2515946;;;;;1118.8
1279.0;1181.3;90315;90173;7250;;;;;;;;;;;;;;;;;;
1279.0;1190.1;;;;0.08485032;0.95100796;0.47934347;;;;;;;;;;;;;;;
1279.0;1190.1;;;;0.0800171;0.9517251;0.47223288;;;;;;;;;;;;;;;
1279.0;1190.1;;;;0.07353211;0.9495965;0.46243674;;;;;;;;;;;;;;;
1279.0;1190.1;;;;0.070156105;0.9465753;0.45195776;;;;;;;;;;;;;;;
1279.0;1190.1;;;;0.06434632;0.9431344;0.44034582;;;;;;;;;;;;;;;
1279.0;1200.0;;;;0.054241188;0.9357568;0.4297219;;;;;;;;;;;;;;;
1279.0;1200.0;;;;0.042465214;0.9333612;0.4204064;;;;;;;;;;;;;;;
1279.0;1200.0;;;;0.0321579;0.93504727;0.41244513;;;;;;;;;;;;;;;
1279.0;1200.0;;;;0.021907808;0.93738186;0.40702444;;;;;;;;;;;;;;;
1279.0;1200.0;;;;0.010032655;0.94012463;0.39820868;;;;;;;;;;;;;;;
1330.0;1201.5;106631;106621;7240;;;;;;;;;;;;;;;;;;
1330.0;1207.8;;;;;;;;;;;;;-5;;;;;;;;
1330.0;1207.8;;;;;;;;;;;;;-7;;;;;;;;
1330.0;1207.8;;;;;;;;;;;;;-12;;;;;;;;
1330.0;1207.8;;;;;;;;;;;;;-8;;;;;;;;
1330.0;1207.8;;;;;;;;;;;;;-11;;;;;;;;
1330.0;1210.1;;;;0.0022392275;0.9420091;0.3875504;;;;;;;;;;;;;;;
1330.0;1210.1;;;;-0.0028991702;0.9384347;0.37840658;;;;;;;;;;;;;;;
1330.0;1210.1;;;;-0.005386353;0.9378816;0.37171176;;;;;;;;;;;;;;;
1330.0;1210.1;;;;-0.0011253358;0.9400369;0.36948398;;;;;;;;;;;;;;;
1330.0;1210.1;;;;-0.015018465;0.9280015;0.35234454;;;;;;;;;;;;;;;
1330.0;1220.2;;;;-0.022430422;0.92686474;0.3445969;;;;;;;;;;;;;;;
1330.0;1220.2;;;;-0.032890324;0.9281503;0.34212497;;;;;;;;;;;;;;;
1330.0;1220.2;;;;-0.03953934;0.92341626;0.33724216;;;;;;;;;;;;;;;
1330.0;1220.2;;;;-0.047416694;0.92110074;0.32586673;;;;;;;;;;;;;;;
1330.0;1220.2;;;;-0.05183793;0.9227525;0.31963733;;;;;;;;;;;;;;;
1330.0;1221.7;123097;123019;7252;;;;;;;;;;;;;;;;;;
1330.0;1230.3;;;;-0.06164933;0.9245645;0.31557468;;;;;;;;;;;;;;;
1330.0;1230.3;;;;-0.07213975;0.9251634;0.30983356;;;;;;;;;;;;;;;
1330.0;1230.3;;;;-0.08166123;0.9253198;0.30539706;;;;;;;;;;;;;;;
1330.0;1230.3;;;;-0.09184266;0.9259683;0.29919818;;;;;;;;;;;;;;;
1330.0;1230.3;;;;-0.10410692;0.92398083;0.29139712;;;;;;;;;;;;;;;
1333.0;1240.0;;;;;;;;;;;;;;;;;31.708733;64.03165;-30.823694;;1128.5
1333.0;1240.0;;;;;;;;;;;;;;-0.18890958;0.91274756;-0.22595905;;;;;1128.5
1333.0;1240.0;;;;;;;;;;;;;;;;;27.428509;70.45961;-35.134434;;1128.5
1333.0;1240.0;;;;;;;;;;;;;;-0.15106662;0.90298164;-0.21765801;;;;;1128.5
1333.0;1240.0;;;;;;;;;;;;;;;;;17.880032;74.91913;-33.230843;;1138.1
1333.0;1240.0;;;;;;;;;;;;;;-0.08874783;0.9112827;-0.21796319;;;;;1138.1
1333.0;1240.0;;;;;;;;;;;;;;;;;9.11359;75.857574;-31.720177;;1138.1
1333.0;1240.0;;;;;;;;;;;;;;-0.06451613;0.9459517;-0.21869564;;;;;1138.1
1333.0;1240.0;;;;;;;;;;;;;;;;;1.3504441;74.45372;-31.922363;;1147.6
1333.0;1240.0;;;;;;;;;;;;;;-0.03668325;0.9719535;-0.21655935;;;;;1147.6
1333.0;1240.0;;;;;;;;;;;;;;;;;-8.720664;74.27824;-32.494583;;1147.6
1333.0;1240.0;;;;;;;;;;;;;;-0.019898068;0.97116;-0.19281594;;;;;1147.6
1333.0;1240.4;;;;-0.1170273;0.9247323;0.28377536;;;;;;;;;;;;;;;
1333.0;1240.4;;;;-0.12886049;0.9257165;0.2760735;;;;;;;;;;;;;;;
1333.0;1240.4;;;;-0.14064409;0.9276086;0.26703265;;;;;;;;;;;;;;;
1333.0;1240.4;;;;-0.15256502;0.92731106;0.25879672;;;;;;;;;;;;;;;
1333.0;1240.4;;;;-0.16435625;0.92681134;0.2488251;;;;;;;;;;;;;;;
1334.0;1240.8;;;;;;;;;;;;;;;;;-16.098515;74.54909;-32.75399;;1157.3
1334.0;1240.8;;;;;;;;;;;;;;-0.006164739;0.9522996;-0.17914365;;;;;1157.3
1334.0;1240.8;;;;;;;;;;;;;;;;;-18.810846;76.5595;-32.937103;;1157.3
1334.0;1240.8;;;;;;;;;;;;;;-0.003357036;0.9439375;-0.1633961;;;;;1157.3
1334.0;1240.8;;;;;;;;;;;;;;;;;-19.596697;78.84075;-33.673363;;1166.9
1334.0;1240.8;;;;;;;;;;;;;;-0.019104587;0.9408246;-0.15106662;;;;;1166.9
1334.0;1240.8;;;;;;;;;;;;;;;;;-20.622883;79.56175;-33.09351;;1166.9
1334.0;1240.8;;;;;;;;;;;;;;-0.003173925;0.9297159;-0.13830988;;;;;1166.9
1334.0;1240.8;;;;;;;;;;;;;;;;;-24.323254;80.09964;-32.692955;;1176.5
1334.0;1240.8;;;;;;;;;;;;;;0.0014038514;0.90267646;-0.13940856;;;;;1176.5
1334.0;1240.8;;;;;;;;;;;;;;;;;-23.97229;80.62227;-31.994843;;1176.5
1334.0;1240.8;;;;;;;;;;;;;;0.00921659;0.8674581;-0.15814692;;;;;1176.5
1334.0;1241.8;139399;139565;7244;;;;;;;;;;;;;;;;;;
1334.0;1248.1;;;;;;;;;;;;;-9;;;;;;;;
1334.0;1248.1;;;;;;;;;;;;;-2;;;;;;;;
1334.0;1248.1;;;;;;;;;;;;;-24;;;;;;;;
1334.0;1248.1;;;;;;;;;;;;;21;;;;;;;;
1334.0;1248.1;;;;;;;;;;;;;14;;;;;;;;
1334.0;1250.4;;;;-0.1743126;0.9240266;0.24003223;;;;;;;;;;;;;;;
1334.0;1250.4;;;;-0.18209077;0.92245114;0.23102191;;;;;;;;;;;;;;;
1334.0;1250.4;;;;-0.19207767;0.9217607;0.22146991;;;;;;;;;;;;;;;
1334.0;1250.4;;;;-0.20327762;0.91913617;0.21086505;;;;;;;;;;;;;;;
1334.0;1250.4;;;;-0.2140694;0.91599286;0.19963077;;;;;;;;;;;;;;;
1391.0;1260.5;;;;-0.22278216;0.91344845;0.18864444;;;;;;;;;;;;;;;
1391.0;1260.5;;;;-0.22979358;0.91214764;0.17806627;;;;;;;;;;;;;;;
1391.0;1260.5;;;;-0.23467258;0.91113293;0.16710283;;;;;;;;;;;;;;;
1391.0;1260.5;;;;-0.2370911;0.9101144;0.15727998;;;;;;;;;;;;;;;
1391.0;1260.5;;;;-0.23803332;0.90890133;0.14815141;;;;;;;;;;;;;;;
1391.0;1262.1;155759;155750;7230;;;;;;;;;;;;;;;;;;
1391.0;1270.4;;;;-0.23773196;0.9069139;0.14006425;;;;;;;;;;;;;;;
1391.0;1270.4;;;;-0.23328403;0.90517056;0.13196184;;;;;;;;;;;;;;;
1391.0;1270.4;;;;-0.229538;0.90361416;0.12351228;;;;;;;;;;;;;;;
1391.0;1270.4;;;;-0.22481158;0.9024812;0.114776626;;;;;;;;;;;;;;;
1391.0;1270.4;;;;-0.22186282;0.9006654;0.10754396;;;;;;;;;;;;;;;
1391.0;1280.4;;;;-0.22072986;0.89810956;0.10039522;;;;;;;;;;;;;;;
1391.0;1280.4;;;;-0.22088626;0.8951341;0.09352494;;;;;;;;;;;;;;;
1391.0;1280.4;;;;-0.22261813;0.89224637;0.08599473;;;;;;;;;;;;;;;
1391.0;1280.4;;;;-0.2238312;0.8898965;0.07792283;;;;;;;;;;;;;;;
1391.0;1280.4;;;;-0.22583011;0.8862039;0.07239533;;;;;;;;;;;;;;;
1391.0;1282.0;172147;172190;7227;;;;;;;;;;;;;;;;;;
1391.0;1288.3;;;;;;;;;;;;;-190;;;;;;;;
1391.0;1288.3;;;;;;;;;;;;;-130;;;;;;;;
1391.0;1288.3;;;;;;;;;;;;;342;;;;;;;;
1391.0;1288.3;;;;;;;;;;;;;140;;;;;;;;
1391.0;1288.3;;;;;;;;;;;;;-1735;;;;;;;;
1393.0;1290.5;;;;-0.22637942;0.8847467;0.06488801;;;;;;;;;;;;;;;
1393.0;1290.5;;;;-0.2259331;0.8859254;0.060222633;;;;;;;;;;;;;;;
1393.0;1290.5;;;;-0.22518924;0.88556683;0.05749131;;;;;;;;;;;;;;;
1393.0;1290.5;;;;-0.22553256;0.883381;0.05274201;;;;;;;;;;;;;;;
1393.0;1290.5;;;;-0.2262421;0.87976086;0.046577457;;;;;;;;;;;;;;;
1393.0;1300.6;;;;-0.22618106;0.8746797;0.04088593;;;;;;;;;;;;;;;
1393.0;1300.6;;;;-0.22571948;0.87039196;0.036556248;;;;;;;;;;;;;;;
1393.0;1300.6;;;;-0.22789386;0.8666192;0.032707218;;;;;;;;;;;;;;;
1393.0;1300.6;;;;-0.22859195;0.86241543;0.029575352;;;;;;;;;;;;;;;
1393.0;1300.6;;;;-0.229126;0.85644925;0.02694321;;;;;;;;;;;;;;;
1393.0;1302.3;188515;188653;7224;;;;;;;;;;;;;;;;;;
1393.0;1307.7;;;;;;;;;;;;;;;;;-18.601032;80.04242;-31.346325;;1186.2
1393.0;1307.7;;;;;;;;;;;;;;-0.010742515;0.86538285;-0.16711935;;;;;1186.2
1393.0;1307.7;;;;;;;;;;;;;;;;;-14.427626;77.46361;-30.926695;;1186.2
1393.0;1307.7;;;;;;;;;;;;;;-0.04443495;0.898587;-0.16138189;;;;;1186.2
1393.0;1307.7;;;;;;;;;;;;;;;;;-13.245033;74.728386;-29.48851;;1195.8
1393.0;1307.7;;;;;;;;;;;;;;-0.048280284;0.90145576;-0.15149388;;;;;1195.8
1393.0;1307.7;;;;;;;;;;;;;;;;;-13.462478;73.33216;-28.225805;;1195.8
1393.0;1307.7;;;;;;;;;;;;;;-0.045350507;0.89095736;-0.15405744;;;;;1195.8
1393.0;1307.7;;;;;;;;;;;;;;;;;-12.081515;73.786125;-25.215918;;1205.5
1393.0;1307.7;;;;;;;;;;;;;;-0.062440872;0.8852199;-0.1568041;;;;;1205.5
1393.0;1307.7;;;;;;;;;;;;;;;;;-9.853663;73.91965;-22.846918;;1205.5
1393.0;1307.7;;;;;;;;;;;;;;-0.09796441;0.8946806;-0.15546128;;;;;1205.5
1395.0;1308.5;;;;;;;;;;;;;;;;;-9.273812;72.264015;-20.222326;;1215.0
1395.0;1308.5;;;;;;;;;;;;;;-0.11004975;0.90249336;-0.16675314;;;;;1215.0
1395.0;1308.5;;;;;;;;;;;;;;;;;-9.701072;68.92986;-18.604847;;1215.0
1395.0;1308.5;;;;;;;;;;;;;;-0.18420972;0.90920746;-0.11511582;;;;;1215.0
1395.0;1308.5;;;;;;;;;;;;;;;;;-17.93344;63.70739;-17.063662;;1224.7
1395.0;1308.5;;;;;;;;;;;;;;-0.14368114;0.865688;-0.16071047;;;;;1224.7
1395.0;1308.5;;;;;;;;;;;;;;;;;-11.684774;61.456646;-13.386182;;1224.7
1395.0;1308.5;;;;;;;;;;;;;;-0.1525315;0.87478256;-0.17114781;;;;;1224.7
1395.0;1308.5;;;;;;;;;;;;;;;;;-8.060701;61.70461;-10.101626;;1234.4
1395.0;1308.5;;;;;;;;;;;;;;-0.18207343;0.9438154;-0.13324381;;;;;1234.4
1395.0;1308.5;;;;;;;;;;;;;;;;;-12.775811;59.621723;-6.8666644;;1234.4
1395.0;1308.5;;;;;;;;;;;;;;-0.20453505;0.94912565;-0.12024293;;;;;1234.4
1395.0;1310.4;;;;-0.22887424;0.8501779;0.024665836;;;;;;;;;;;;;;;
1395.0;1310.4;;;;-0.22822192;0.8442956;0.022319796;;;;;;;;;;;;;;;
1395.0;1310.4;;;;-0.22506335;0.8379785;0.021747591;;;;;;;;;;;;;;;
1395.0;1310.4;;;;-0.22052386;0.83439267;0.022506716;;;;;;;;;;;;;;;
1395.0;1310.4;;;;-0.21576312;0.831833;0.023609165;;;;;;;;;;;;;;;
1395.0;1320.4;;;;-0.20930865;0.8309175;0.02373505;;;;;;;;;;;;;;;
1395.0;1320.4;;;;-0.2020264;0.83010495;0.024963383;;;;;;;;;;;;;;;
1395.0;1320.4;;;;-0.19473651;0.8294488;0.026393894;;;;;;;;;;;;;;;
1395.0;1320.4;;;;-0.18836597;0.82792294;0.027263645;;;;;;;;;;;;;;;
1395.0;1320.4;;;;-0.18360521;0.8262979;0.028224949;;;;;;;;;;;;;;;
1395.0;1322.2;204941;204960;7226;;;;;;;;;;;;;;;;;;
1451.0;1328.4;;;;;;;;;;;;;-4594;;;;;;;;
1451.0;1328.4;;;;;;;;;;;;;-6660;;;;;;;;
1451.0;1328.4;;;;;;;;;;;;;-6994;;;;;;;;
1451.0;1328.4;;;;;;;;;;;;;-6266;;;;;;;;
1451.0;1328.4;;;;;;;;;;;;;-5639;;;;;;;;
1451.0;1330.5;;;;-0.1803589;0.8239976;0.029083256;;;;;;;;;;;;;;;
1451.0;1330.5;;;;-0.17994691;0.82151425;0.029937748;;;;;;;;;;;;;;;
1451.0;1330.5;;;;-0.1806717;0.8185464;0.031284336;;;;;;;;;;;;;;;
1451.0;1330.5;;;;-0.1835518;0.81508267;0.032547;;;;;;;;;;;;;;;
1451.0;1330.5;;;;-0.18714906;0.81205;0.034225468;;;;;;;;;;;;;;;
1451.0;1340.6;;;;-0.19109347;0.80946743;0.035938267;;;;;;;;;;;;;;;
1451.0;1340.6;;;;-0.19539645;0.80731595;0.037300114;;;;;;;;;;;;;;;
1451.0;1340.6;;;;-0.1991196;0.8046609;0.03899384;;;;;;;;;;;;;;;
1451.0;1340.6;;;;-0.20282367;0.8025247;0.040485386;;;;;;;;;;;;;;;
1451.0;1340.6;;;;-0.20587161;0.8008615;0.043025974;;;;;;;;;;;;;;;
1451.0;1342.4;210768;221434;7211;;;;;;;;;;;;;;;;;;
1451.0;1350.7;;;;-0.20859149;0.7992097;0.04523087;;;;;;;;;;;;;;;
1451.0;1350.7;;;;-0.21144107;0.7979661;0.047740944;;;;;;;;;;;;;;;
1451.0;1350.7;;;;-0.21406177;0.79651654;0.04965592;;;;;;;;;;;;;;;
1451.0;1350.7;;;;-0.21625903;0.7948953;0.052566536;;;;;;;;;;;;;;;
1451.0;1350.7;;;;-0.2185364;0.79353344;0.055488594;;;;;;;;;;;;;;;
1456.0;1360.5;;;;;;;;;;;;;;;;;-15.575884;57.97754;-5.3140354;;1244.0
1456.0;1360.5;;;;;;;;;;;;;;-0.22016053;0.9247108;-0.12549211;;;;;1244.0
1456.0;1360.5;;;;;;;;;;;;;;;;;-14.816737;56.794945;-3.7728508;;1244.0
1456.0;1360.5;;;;;;;;;;;;;;-0.22565386;0.90804774;-0.148381;;;;;1244.0
1456.0;1360.5;;;;;;;;;;;;;;;;;-13.2793665;54.92187;-2.0485551;;1253.6
1456.0;1360.5;;;;;;;;;;;;;;-0.23303933;0.90524;-0.16534929;;;;;1253.6
1456.0;1360.5;;;;;;;;;;;;;;;;;-13.260293;52.06076;-0.6828517;;1253.6
1456.0;1360.5;;;;;;;;;;;;;;-0.23523667;0.9031037;-0.17481002;;;;;1253.6
1456.0;1360.5;;;;;;;;;;;;;;;;;-14.408551;49.25306;0.88122195;;1263.3
1456.0;1360.5;;;;;;;;;;;;;;-0.23883785;0.8929716;-0.16742454;;;;;1263.3
1456.0;1360.5;;;;;;;;;;;;;;;;;-15.495773;46.2508;2.1477401;;1263.3
1456.0;1360.5;;;;;;;;;;;;;;-0.24073;0.88412124;-0.15747552;;;;;1263.3
1456.0;1360.7;;;;-0.21982196;0.7920686;0.057704933;;;;;;;;;;;;;;;
1456.0;1360.7;;;;-0.22156909;0.79062665;0.06087876;;;;;;;;;;;;;;;
1456.0;1360.7;;;;-0.22256091;0.7894021;0.06391526;;;;;;;;;;;;;;;
1456.0;1360.7;;;;-0.22287753;0.78897107;0.066364296;;;;;;;;;;;;;;;
1456.0;1360.7;;;;-0.22336963;0.7883035;0.06911469;;;;;;;;;;;;;;;
1457.0;1361.3;;;;;;;;;;;;;;;;;-16.41133;42.89758;2.1553698;;1272.8
1457.0;1361.3;;;;;;;;;;;;;;-0.26111636;0.8921171;-0.1314127;;;;;1272.8
1457.0;1361.3;;;;;;;;;;;;;;;;;-23.03003;40.272987;2.113407;;1272.8
1457.0;1361.3;;;;;;;;;;;;;;-0.18604083;0.842616;-0.13751641;;;;;1272.8
1457.0;1361.3;;;;;;;;;;;;;;;;;-24.88403;40.746025;5.218665;;1282.3
1457.0;1361.3;;;;;;;;;;;;;;-0.17474899;0.8233284;-0.18280587;;;;;1282.3
1457.0;1361.3;;;;;;;;;;;;;;;;;-15.133366;40.50569;5.672628;;1282.3
1457.0;1361.3;;;;;;;;;;;;;;-0.16815698;0.90646076;-0.17145298;;;;;1282.3
1457.0;1361.3;;;;;;;;;;;;;;;;;-16.697441;43.336285;7.351146;;1292.0
1457.0;1361.3;;;;;;;;;;;;;;-0.15448469;0.91763055;-0.13922544;;;;;1292.0
1457.0;1361.3;;;;;;;;;;;;;;;;;-20.359661;46.117283;8.6901455;;1292.0
1457.0;1361.3;;;;;;;;;;;;;;-0.15082248;0.90859705;-0.114749596;;;;;1292.0
1457.0;1362.4;210740;237755;7224;;;;;;;;;;;;;;;;;;
1457.0;1368.7;;;;;;;;;;;;;-5246;;;;;;;;
1457.0;1368.7;;;;;;;;;;;;;-4651;;;;;;;;
1457.0;1368.7;;;;;;;;;;;;;-3937;;;;;;;;
1457.0;1368.7;;;;;;;;;;;;;-3258;;;;;;;;
1457.0;1368.7;;;;;;;;;;;;;-2538;;;;;;;;
1457.0;1370.7;;;;-0.22317126;0.78818524;0.071846016;;;;;;;;;;;;;;;
1457.0;1370.7;;;;-0.22203067;0.78826916;0.07358552;;;;;;;;;;;;;;;
1457.0;1370.7;;;;-0.22073749;0.78792965;0.075817116;;;;;;;;;;;;;;;
1457.0;1370.7;;;;-0.2185593;0.7882234;0.07838441;;;;;;;;;;;;;;;
1457.0;1370.7;;;;-0.2154961;0.7880441;0.080421455;;;;;;;;;;;;;;;
1511.0;1375.9;;;;;;;;;;;;;;;;;-22.053438;48.539692;9.170813;;1301.6
1511.0;1375.9;;;;;;;;;;;;;;-0.14404736;0.89724416;-0.12195197;;;;;1301.6
1511.0;1375.9;;;;;;;;;;;;;;;;;-22.083958;50.084686;9.933775;;1301.6
1511.0;1375.9;;;;;;;;;;;;;;-0.13599049;0.90444654;-0.12927641;;;;;1301.6
1511.0;1375.9;;;;;;;;;;;;;;;;;-23.609882;50.187687;10.704368;;1311.3
1511.0;1375.9;;;;;;;;;;;;;;-0.12836085;0.92043823;-0.12237922;;;;;1311.3
1511.0;1375.9;;;;;;;;;;;;;;;;;-26.20777;49.382767;11.211737;;1311.3
1511.0;1375.9;;;;;;;;;;;;;;-0.12518692;0.9247108;-0.11383404;;;;;1311.3
1511.0;1375.9;;;;;;;;;;;;;;;;;-27.661213;48.890656;11.993774;;1320.8
1511.0;1375.9;;;;;;;;;;;;;;-0.123661004;0.93630785;-0.09900205;;;;;1320.8
1511.0;1375.9;;;;;;;;;;;;;;;;;-29.91577;49.375134;12.417218;;1320.8
1511.0;1375.9;;;;;;;;;;;;;;-0.11444441;0.93581957;-0.103518784;;;;;1320.8
1511.0;1380.6;;;;-0.21228793;0.7884675;0.08161164;;;;;;;;;;;;;;;
1511.0;1380.6;;;;-0.20827106;0.78888714;0.083435066;;;;;;;;;;;;;;;
1511.0;1380.6;;;;-0.20504001;0.7892076;0.084644325;;;;;;;;;;;;;;;
1511.0;1380.6;;;;-0.20191196;0.7895967;0.08597947;;;;;;;;;;;;;;;
1511.0;1380.6;;;;-0.19875339;0.7895776;0.08684922;;;;;;;;;;;;;;;
1511.0;1382.5;210753;254083;7218;;;;;;;;;;;;;;;;;;
1511.0;1390.5;;;;-0.19481662;0.789013;0.08826829;;;;;;;;;;;;;;;
1511.0;1390.5;;;;-0.19174579;0.7881242;0.08969117;;;;;;;;;;;;;;;
1511.0;1390.5;;;;-0.18978885;0.7880212;0.09012986;;;;;;;;;;;;;;;
1511.0;1390.5;;;;-0.18751529;0.78774655;0.09055329;;;;;;;;;;;;;;;
1511.0;1390.5;;;;-0.18590547;0.78763974;0.091312416;;;;;;;;;;;;;;;
1517.0;1400.6;;;;-0.18482973;0.78772366;0.09203721;;;;;;;;;;;;;;;
1517.0;1400.6;;;;-0.18378069;0.78813183;0.092571266;;;;;;;;;;;;;;;
1517.0;1400.6;;;;-0.18235017;0.78844464;0.0930481;;;;;;;;;;;;;;;
1517.0;1400.6;;;;-0.18151475;0.78878796;0.09344865;;;;;;;;;;;;;;;
1517.0;1400.6;;;;-0.18092729;0.7894975;0.0938759;;;;;;;;;;;;;;;
1517.0;1402.6;210783;262143;7218;;;;;;;;;;;;;;;;;;
1517.0;1408.9;;;;;;;;;;;;;-2026;;;;;;;;
1517.0;1408.9;;;;;;;;;;;;;-1984;;;;;;;;
1517.0;1408.9;;;;;;;;;;;;;-2230;;;;;;;;
1517.0;1408.9;;;;;;;;;;;;;-2517;;;;;;;;
1517.0;1408.9;;;;;;;;;;;;;-2739;;;;;;;;
1517.0;1410.8;;;;-0.18088533;0.78959286;0.09442522;;;;;;;;;;;;;;;
1517.0;1410.8;;;;-0.18039323;0.7901956;0.09529878;;;;;;;;;;;;;;;
1517.0;1410.8;;;;-0.18062593;0.7915689;0.09635927;;;;;;;;;;;;;;;
1517.0;1410.8;;;;-0.18127443;0.79281247;0.0968094;;;;;;;;;;;;;;;
1517.0;1410.8;;;;-0.18207552;0.7941209;0.09679796;;;;;;;;;;;;;;;
1518.0;1420.8;;;;;;;;;;;;;;;;;-29.244362;50.130466;12.8711815;;1330.5
1518.0;1420.8;;;;;;;;;;;;;;-0.098818935;0.9432661;-0.115970336;;;;;1330.5
1518.0;1420.8;;;;;;;;;;;;;;;;;-27.199623;51.507614;13.245033;;1330.5
1518.0;1420.8;;;;;;;;;;;;;;-0.09222694;0.9503464;-0.13177893;;;;;1330.5
1518.0;1420.8;;;;;;;;;;;;;;;;;-25.322733;52.90002;13.492996;;1340.1
1518.0;1420.8;;;;;;;;;;;;;;-0.0844142;0.9634693;-0.14648885;;;;;1340.1
1518.0;1420.8;;;;;;;;;;;;;;;;;-24.39955;54.35728;14.221625;;1340.1
1518.0;1420.8;;;;;;;;;;;;;;-0.07000946;0.9658498;-0.15771966;;;;;1340.1
1518.0;1420.8;;;;;;;;;;;;;;;;;-23.499252;56.398205;14.908293;;1349.8
1518.0;1420.8;;;;;;;;;;;;;;-0.0524308;0.97201455;-0.16180913;;;;;1349.8
1518.0;1420.8;;;;;;;;;;;;;;;;;-23.262733;58.68328;15.594958;;1349.8
1518.0;1420.8;;;;;;;;;;;;;;-0.03747673;0.9758599;-0.17096469;;;;;1349.8
1518.0;1420.7;;;;-0.18273546;0.7946893;0.09764482;;;;;;;;;;;;;;;
1518.0;1420.7;;;;-0.18350984;0.7958261;0.09822847;;;;;;;;;;;;;;;
1518.0;1420.7;;;;-0.18517305;0.79682934;0.09835054;;;;;;;;;;;;;;;
1518.0;1420.7;;;;-0.18665315;0.79822934;0.098598495;;;;;;;;;;;;;;;
1518.0;1420.7;;;;-0.18803027;0.79924786;0.09894182;;;;;;;;;;;;;;;
1518.0;1422.7;210778;262143;7222;;;;;;;;;;;;;;;;;;
1518.0;1430.8;;;;-0.1896973;0.8006631;0.09940721;;;;;;;;;;;;;;;
1518.0;1430.8;;;;-0.19171527;0.8022119;0.09975053;;;;;;;;;;;;;;;
1518.0;1430.8;;;;-0.1940079;0.80375683;0.099670425;;;;;;;;;;;;;;;
1518.0;1430.8;;;;-0.19596103;0.8054086;0.09978868;;;;;;;;;;;;;;;
1518.0;1430.8;;;;-0.19819263;0.8066369;0.1005974;;;;;;;;;;;;;;;
1571.0;1435.9;;;;;;;;;;;;;;;;;-23.285624;60.93783;15.8772545;;1359.4
1571.0;1435.9;;;;;;;;;;;;;;-0.037171546;0.98178047;-0.17200232;;;;;1359.4
1571.0;1435.9;;;;;;;;;;;;;;;;;-24.254585;62.128056;16.525774;;1359.4
1571.0;1435.9;;;;;;;;;;;;;;-0.027161473;0.98226875;-0.16803491;;;;;1359.4
1571.0;1435.9;;;;;;;;;;;;;;;;;-26.146732;63.10846;17.0484;;1369.0
1571.0;1435.9;;;;;;;;;;;;;;-0.018677328;0.97720265;-0.17322306;;;;;1369.0
1571.0;1435.9;;;;;;;;;;;;;;;;;-27.546768;64.80224;17.410809;;1369.0
1571.0;1435.9;;;;;;;;;;;;;;-0.027527696;0.9668264;-0.17322306;;;;;1369.0
1571.0;1435.9;;;;;;;;;;;;;;;;;-27.542953;65.56902;17.345957;;1378.6
1571.0;1435.9;;;;;;;;;;;;;;-0.025147252;0.94857633;-0.19678335;;;;;1378.6
1571.0;1435.9;;;;;;;;;;;;;;;;;-26.058992;66.31291;17.42607;;1378.6
1571.0;1435.9;;;;;;;;;;;;;;-0.028687399;0.9333781;-0.2111881;;;;;1378.6
1571.0;1440.8;;;;-0.20061496;0.8083879;0.1001053;;;;;;;;;;;;;;;
1571.0;1440.8;;;;-0.2029877;0.80990994;0.09970857;;;;;;;;;;;;;;;
1571.0;1440.8;;;;-0.20474628;0.81134045;0.09965135;;;;;;;;;;;;;;;
1571.0;1440.8;;;;-0.20695499;0.81266034;0.10006334;;;;;;;;;;;;;;;
1571.0;1440.8;;;;-0.20928195;0.8140832;0.10008623;;;;;;;;;;;;;;;
1571.0;1442.9;210769;262143;7222;;;;;;;;;;;;;;;;;;
1571.0;1449.0;;;;;;;;;;;;;-2855;;;;;;;;
1571.0;1449.0;;;;;;;;;;;;;-3042;;;;;;;;
1571.0;1449.0;;;;;;;;;;;;;-3193;;;;;;;;
1571.0;1449.0;;;;;;;;;;;;;-3070;;;;;;;;
1571.0;1449.0;;;;;;;;;;;;;-2911;;;;;;;;
1573.0;1450.8;;;;-0.21131137;0.8156625;0.09938814;;;;;;;;;;;;;;;
1573.0;1450.8;;;;-0.21270755;0.817299;0.09983064;;;;;;;;;;;;;;;
1573.0;1450.8;;;;-0.21470645;0.81941235;0.099784866;;;;;;;;;;;;;;;
1573.0;1450.8;;;;-0.21627048;0.82182705;0.09959413;;;;;;;;;;;;;;;
1573.0;1450.8;;;;-0.2169266;0.8244554;0.099742904;;;;;;;;;;;;;;;
1573.0;1460.9;;;;-0.21816257;0.8269006;0.099792495;;;;;;;;;;;;;;;
1573.0;1460.9;;;;-0.21903613;0.8297235;0.10021593;;;;;;;;;;;;;;;
1573.0;1460.9;;;;-0.22070315;0.8322679;0.10008623;;;;;;;;;;;;;;;
1573.0;1460.9;;;;-0.22124103;0.83467877;0.10025789;;;;;;;;;;;;;;;
1573.0;1460.9;;;;-0.22176746;0.83776486;0.10040285;;;;;;;;;;;;;;;
1573.0;1463.0;210772;262143;7217;;;;;;;;;;;;;;;;;;
1573.0;1471.0;;;;-0.22267154;0.8405305;0.100864425;;;;;;;;;;;;;;;
1573.0;1471.0;;;;-0.22387317;0.8437692;0.10177232;;;;;;;;;;;;;;;
1573.0;1471.0;;;;-0.2243233;0.8471948;0.10216524;;;;;;;;;;;;;;;
1573.0;1471.0;;;;-0.22435382;0.85053647;0.10278322;;;;;;;;;;;;;;;
1573.0;1471.0;;;;-0.22431567;0.85403836;0.10260774;;;;;;;;;;;;;;;
1573.0;1481.1;;;;-0.22426608;0.85756695;0.1030121;;;;;;;;;;;;;;;
1573.0;1481.1;;;;-0.22426608;0.8610765;0.10345842;;;;;;;;;;;;;;;
1573.0;1481.1;;;;-0.22484592;0.86480343;0.10332872;;;;;;;;;;;;;;;
1573.0;1481.1;;;;-0.22455218;0.8683969;0.10359956;;;;;;;;;;;;;;;
1573.0;1481.1;;;;-0.22514728;0.8723146;0.103820816;;;;;;;;;;;;;;;
1633.0;1483.3;210807;262143;7218;;;;;;;;;;;;;;;;;;
1633.0;1489.5;;;;;;;;;;;;;-2968;;;;;;;;
1633.0;1489.5;;;;;;;;;;;;;-3073;;;;;;;;
1633.0;1489.5;;;;;;;;;;;;;-3022;;;;;;;;
1633.0;1489.5;;;;;;;;;;;;;-2838;;;;;;;;
1633.0;1489.5;;;;;;;;;;;;;-2755;;;;;;;;
1633.0;1491.2;;;;-0.22508243;0.8764154;0.104454055;;;;;;;;;;;;;;;
1633.0;1491.2;;;;-0.22487643;0.8799974;0.1043625;;;;;;;;;;;;;;;
1633.0;1491.2;;;;-0.22511294;0.88393795;0.10508348;;;;;;;;;;;;;;;
1633.0;1491.2;;;;-0.22509387;0.88811123;0.10603334;;;;;;;;;;;;;;;
1633.0;1491.2;;;;-0.22470096;0.89210904;0.10678102;;;;;;;;;;;;;;;
1633.0;1501.2;;;;-0.22522357;0.8969079;0.10797121;;;;;;;;;;;;;;;
1633.0;1501.2;;;;-0.22574618;0.9008523;0.108993545;;;;;;;;;;;;;;;
1633.0;1501.2;;;;-0.2253342;0.90518963;0.1096573;;;;;;;;;;;;;;;
1633.0;1501.2;;;;-0.22546771;0.9086648;0.1108246;;;;;;;;;;;;;;;
1633.0;1501.2;;;;-0.22562793;0.9128114;0.1124077;;;;;;;;;;;;;;;
1633.0;1503.4;210787;262143;7220;;;;;;;;;;;;;;;;;;
1633.0;1511.2;;;;-0.22590259;0.9167329;0.11361314;;;;;;;;;;;;;;;
1633.0;1511.2;;;;-0.2262688;0.91973126;0.11444093;;;;;;;;;;;;;;;
1633.0;1511.2;;;;-0.22625354;0.9221307;0.115978256;;;;;;;;;;;;;;;
1633.0;1511.2;;;;-0.22752002;0.925007;0.11727907;;;;;;;;;;;;;;;
1633.0;1511.2;;;;-0.22817996;0.92689526;0.11871721;;;;;;;;;;;;;;;
1634.0;1521.2;;;;-0.23012546;0.92954266;0.120395675;;;;;;;;;;;;;;;
1634.0;1521.2;;;;-0.23115924;0.9310266;0.12078096;;;;;;;;;;;;;;;
1634.0;1521.2;;;;-0.23247531;0.93275845;0.12264635;;;;;;;;;;;;;;;
1634.0;1521.2;;;;-0.23249057;0.93425;0.12385179;;;;;;;;;;;;;;;
1634.0;1521.2;;;;-0.23308566;0.9366342;0.1248932;;;;;;;;;;;;;;;
1634.0;1523.5;210776;262143;7223;;;;;;;;;;;;;;;;;;
1634.0;1529.7;;;;;;;;;;;;;-2934;;;;;;;;
1634.0;1529.7;;;;;;;;;;;;;-3161;;;;;;;;
1634.0;1529.7;;;;;;;;;;;;;-3132;;;;;;;;
1634.0;1529.7;;;;;;;;;;;;;-3082;;;;;;;;
1634.0;1529.7;;;;;;;;;;;;;-3363;;;;;;;;
1634.0;1531.3;;;;-0.23339465;0.93919003;0.12554933;;;;;;;;;;;;;;;
1634.0;1531.3;;;;-0.23435214;0.94036496;0.12590791;;;;;;;;;;;;;;;
1634.0;1531.3;;;;-0.23495868;0.94223034;0.12649919;;;;;;;;;;;;;;;
1634.0;1531.3;;;;-0.2351456;0.94339764;0.1274376;;;;;;;;;;;;;;;
1634.0;1531.3;;;;-0.2366257;0.94586575;0.12750246;;;;;;;;;;;;;;;
1634.0;1541.4;;;;-0.23746875;0.9480096;0.12832643;;;;;;;;;;;;;;;
1634.0;1541.4;;;;-0.23796847;0.94936;0.12882616;;;;;;;;;;;;;;;
1634.0;1541.4;;;;-0.23884967;0.950287;0.12918855;;;;;;;;;;;;;;;
1634.0;1541.4;;;;-0.23923114;0.9523889;0.12932207;;;;;;;;;;;;;;;
1634.0;1541.4;;;;-0.23982242;0.9542695;0.13097383;;;;;;;;;;;;;;;
1635.0;1542.4;;;;;;;;;;;;;;;;;-23.365734;66.347244;17.48329;;1388.2
1635.0;1542.4;;;;;;;;;;;;;;-0.018372143;0.92281866;-0.22992645;;;;;1388.2
1635.0;1542.4;;;;;;;;;;;;;;;;;-20.47792;67.075874;17.963957;;1388.2
1635.0;1542.4;;;;;;;;;;;;;;-0.005859554;0.91671497;-0.25348675;;;;;1388.2
1635.0;1542.4;;;;;;;;;;;;;;;;;-17.139957;68.80779;18.54381;;1397.8
1635.0;1542.4;;;;;;;;;;;;;;0.0037232582;0.9164098;-0.27900022;;;;;1397.8
1635.0;1542.4;;;;;;;;;;;;;;;;;-14.484848;71.100494;19.306772;;1397.8
1635.0;1542.4;;;;;;;;;;;;;;0.025147252;0.9338664;-0.28894925;;;;;1397.8
1635.0;1542.4;;;;;;;;;;;;;;;;;-13.973662;74.49187;20.004883;;1407.4
1635.0;1542.4;;;;;;;;;;;;;;0.041077916;0.94570756;-0.29340494;;;;;1407.4
1635.0;1542.4;;;;;;;;;;;;;;;;;-13.5387745;79.23368;20.447401;;1407.4
1635.0;1542.4;;;;;;;;;;;;;;0.04565569;0.9406415;-0.30408642;;;;;1407.4
1635.0;1543.7;;;;;;;;;;;;;;;;;-11.341441;85.31449;20.26429;;1417.0
1635.0;1543.7;;;;;;;;;;;;;;0.04113895;0.9419843;-0.3267922;;;;;1417.0
1635.0;1543.7;;;;;;;;;;;;;;;;;-7.488479;91.76534;20.050661;;1417.0
1635.0;1543.7;;;;;;;;;;;;;;0.042481765;0.9474166;-0.33887753;;;;;1417.0
1635.0;1543.7;;;;;;;;;;;;;;;;;-4.7685175;97.14805;19.722586;;1426.7
1635.0;1543.7;;;;;;;;;;;;;;0.035767693;0.94863737;-0.3442488;;;;;1426.7
1635.0;1543.7;;;;;;;;;;;;;;;;;-3.543962;100.34486;19.455551;;1426.7
1635.0;1543.7;;;;;;;;;;;;;;0.013000885;0.95059055;-0.3449202;;;;;1426.7
1635.0;1543.7;;;;;;;;;;;;;;;;;-3.357036;102.839745;19.283884;;1436.4
1635.0;1543.7;;;;;;;;;;;;;;0.006164739;0.9423505;-0.35346538;;;;;1436.4
1635.0;1543.7;;;;;;;;;;;;;;;;;-3.07474;105.26597;18.74981;;1436.4
1635.0;1543.7;;;;;;;;;;;;;;-0.018921476;0.9349651;-0.3471175;;;;;1436.4
1690.0;1543.6;210761;262143;7223;;;;;;;;;;;;;;;;;;
1690.0;1551.2;;;;-0.24102786;0.95613873;0.13188936;;;;;;;;;;;;;;;
1690.0;1551.2;;;;-0.24135593;0.9591218;0.13290407;;;;;;;;;;;;;;;
1690.0;1551.2;;;;-0.2420769;0.96128476;0.13438798;;;;;;;;;;;;;;;
1690.0;1551.2;;;;-0.24396136;0.9635011;0.13596345;;;;;;;;;;;;;;;
1690.0;1551.2;;;;-0.24559787;0.96530163;0.1382866;;;;;;;;;;;;;;;
1690.0;1561.2;;;;-0.24615481;0.96660244;0.13964464;;;;;;;;;;;;;;;
1690.0;1561.2;;;;-0.24674228;0.96896756;0.13992693;;;;;;;;;;;;;;;
1690.0;1561.2;;;;-0.24824145;0.97077954;0.14105989;;;;;;;;;;;;;;;
1690.0;1561.2;;;;-0.2492638;0.9725572;0.14190294;;;;;;;;;;;;;;;
1690.0;1561.2;;;;-0.24990085;0.97399914;0.14333726;;;;;;;;;;;;;;;
1690.0;1563.6;210700;262143;7206;;;;;;;;;;;;;;;;;;
1690.0;1569.8;;;;;;;;;;;;;-3821;;;;;;;;
1690.0;1569.8;;;;;;;;;;;;;-4088;;;;;;;;
1690.0;1569.8;;;;;;;;;;;;;-3913;;;;;;;;
1690.0;1569.8;;;;;;;;;;;;;-3508;;;;;;;;
1690.0;1569.8;;;;;;;;;;;;;-3319;;;;;;;;
1690.0;1571.3;;;;-0.25187686;0.97568905;0.14379884;;;;;;;;;;;;;;;
1690.0;1571.3;;;;-0.2522278;0.9766809;0.14401628;;;;;;;;;;;;;;;
1690.0;1571.3;;;;-0.25308612;0.9786149;0.14504625;;;;;;;;;;;;;;;
1690.0;1571.3;;;;-0.25459674;0.9794389;0.14535905;;;;;;;;;;;;;;;
1690.0;1571.3;;;;-0.25555423;0.9807092;0.1456833;;;;;;;;;;;;;;;
1692.0;1581.2;;;;-0.2556;0.98295605;0.14561082;;;;;;;;;;;;;;;
1692.0;1581.2;;;;-0.25522617;0.9847566;0.14569856;;;;;;;;;;;;;;;
1692.0;1581.2;;;;-0.25526813;0.9875108;0.1448517;;;;;;;;;;;;;;;
1692.0;1581.2;;;;-0.25416186;0.99053204;0.14409639;;;;;;;;;;;;;;;
1692.0;1581.2;;;;-0.25434497;0.9944116;0.1432419;;;;;;;;;;;;;;;
1692.0;1583.6;210674;262143;7209;;;;;;;;;;;;;;;;;;
1692.0;1591.3;;;;-0.25558093;0.9979898;0.14249803;;;;;;;;;;;;;;;
1692.0;1591.3;;;;-0.2553635;1.0017396;0.14152147;;;;;;;;;;;;;;;
1692.0;1591.3;;;;-0.25592044;1.0066453;0.14066316;;;;;;;;;;;;;;;
1692.0;1591.3;;;;-0.2558098;1.0118066;0.1401558;;;;;;;;;;;;;;;
1692.0;1591.3;;;;-0.25494388;1.0154687;0.13961793;;;;;;;;;;;;;;;
1692.0;1601.4;;;;-0.25506595;1.0190278;0.13830568;;;;;;;;;;;;;;;
1692.0;1601.4;;;;-0.25430682;1.0262033;0.1346779;;;;;;;;;;;;;;;
1692.0;1601.4;;;;-0.25529864;1.04237;0.13791277;;;;;;;;;;;;;;;
1692.0;1601.4;;;;-0.2515793;1.048813;0.14509965;;;;;;;;;;;;;;;
1692.0;1601.4;;;;-0.24915317;1.0456163;0.14527513;;;;;;;;;;;;;;;
1693.0;1602.6;;;;;;;;;;;;;;;;;-3.0022585;106.66601;18.040255;;1446.1
1693.0;1602.6;;;;;;;;;;;;;;-0.03753777;0.93728447;-0.33234656;;;;;1446.1
1693.0;1602.6;;;;;;;;;;;;;;;;;-3.7995543;108.12327;17.097994;;1446.1
1693.0;1602.6;;;;;;;;;;;;;;-0.054567095;0.94424266;-0.29914242;;;;;1446.1
1693.0;1602.6;;;;;;;;;;;;;;;;;-5.565813;109.0846;16.563921;;1455.7
1693.0;1602.6;;;;;;;;;;;;;;-0.048585467;0.9443037;-0.2689291;;;;;1455.7
1693.0;1602.6;;;;;;;;;;;;;;;;;-8.625294;110.992004;16.3007;;1455.7
1693.0;1602.6;;;;;;;;;;;;;;-0.047242653;0.92446667;-0.24604023;;;;;1455.7
1693.0;1602.6;;;;;;;;;;;;;;;;;-9.12122;112.6667;15.289773;;1465.4
1693.0;1602.6;;;;;;;;;;;;;;-0.07397687;0.90920746;-0.24182867;;;;;1465.4
1693.0;1602.6;;;;;;;;;;;;;;;;;-5.8671837;113.971375;14.0957365;;1465.4
1693.0;1602.6;;;;;;;;;;;;;;-0.056825466;0.90932953;-0.2537309;;;;;1465.4
1693.0;1603.3;;;;;;;;;;;;;;;;;-3.7003694;115.44008;13.3137;;1474.9
1693.0;1603.3;;;;;;;;;;;;;;-0.050050355;0.9198279;-0.24982452;;;;;1474.9
1693.0;1603.3;;;;;;;;;;;;;;;;;-4.119999;115.61556;12.932219;;1474.9
1693.0;1603.3;;;;;;;;;;;;;;-0.03485214;0.9311808;-0.23804438;;;;;1474.9
1693.0;1603.3;;;;;;;;;;;;;;;;;-5.279702;114.87549;13.023774;;1484.5
1693.0;1603.3;;;;;;;;;;;;;;-0.021851253;0.9350261;-0.24347667;;;;;1484.5
1693.0;1603.3;;;;;;;;;;;;;;;;;-4.909665;113.02911;13.817255;;1484.5
1693.0;1603.3;;;;;;;;;;;;;;-0.010742515;0.9330119;-0.27637562;;;;;1484.5
1693.0;1603.3;;;;;;;;;;;;;;;;;-2.2278512;110.65248;14.530625;;1494.2
1693.0;1603.3;;;;;;;;;;;;;;0.0017090365;0.929899;-0.3175756;;;;;1494.2
1693.0;1603.3;;;;;;;;;;;;;;;;;2.1782587;107.074196;15.24781;;1494.2
1693.0;1603.3;;;;;;;;;;;;;;0.0051271096;0.92965484;-0.36280406;;;;;1494.2
1695.0;1604.2;;;;;;;;;;;;;;;;;5.6802573;102.29423;16.68981;;1503.7
1695.0;1604.2;;;;;;;;;;;;;;-0.0023804437;0.93673515;-0.39924315;;;;;1503.7
1695.0;1604.2;;;;;;;;;;;;;;;;;8.228554;97.16331;17.830439;;1503.7
1695.0;1604.2;;;;;;;;;;;;;;-0.025757622;0.9528489;-0.41853085;;;;;1503.7
1695.0;1604.2;;;;;;;;;;;;;;;;;9.880367;91.99423;18.890959;;1513.3
1695.0;1604.2;;;;;;;;;;;;;;-0.038575396;0.97384566;-0.4136479;;;;;1513.3
1695.0;1604.2;;;;;;;;;;;;;;;;;9.9642935;88.0192;19.711142;;1513.3
1695.0;1604.2;;;;;;;;;;;;;;-0.0667745;0.9850764;-0.3864864;;;;;1513.3
1695.0;1604.2;;;;;;;;;;;;;;;;;9.372997;84.95209;20.336771;;1523.0
1695.0;1604.2;;;;;;;;;;;;;;-0.08404797;0.99502546;-0.3581042;;;;;1523.0
1695.0;1604.2;;;;;;;;;;;;;;;;;7.827998;83.182014;20.878475;;1523.0
1695.0;1604.2;;;;;;;;;;;;;;-0.0910062;0.9960021;-0.32428968;;;;;1523.0
1695.0;1603.8;210693;262143;7203;;;;;;;;;;;;;;;;;;
1695.0;1609.8;;;;;;;;;;;;;-3258;;;;;;;;
1695.0;1609.8;;;;;;;;;;;;;-3238;;;;;;;;
1695.0;1609.8;;;;;;;;;;;;;-3407;;;;;;;;
1695.0;1609.8;;;;;;;;;;;;;-3214;;;;;;;;
1695.0;1609.8;;;;;;;;;;;;;-2491;;;;;;;;
1695.0;1611.3;;;;-0.2510338;1.0438424;0.13676454;;;;;;;;;;;;;;;
1695.0;1611.3;;;;-0.2480965;1.0409318;0.13465883;;;;;;;;;;;;;;;
1695.0;1611.3;;;;-0.25018695;1.0347177;0.13671876;;;;;;;;;;;;;;;
1695.0;1611.3;;;;-0.25605014;1.029091;0.13645555;;;;;;;;;;;;;;;
1695.0;1611.3;;;;-0.26292422;1.0263406;0.13440324;;;;;;;;;;;;;;;
1749.0;1616.7;;;;;;;;;;;;;;;;;6.111332;82.55638;21.580402;;1532.6
1749.0;1616.7;;;;;;;;;;;;;;-0.08594012;0.99429303;-0.29474777;;;;;1532.6
1749.0;1616.7;;;;;;;;;;;;;;;;;5.6955166;82.11386;22.41203;;1532.6
1749.0;1616.7;;;;;;;;;;;;;;-0.07892086;1.0003967;-0.30213323;;;;;1532.6
1749.0;1616.7;;;;;;;;;;;;;;;;;6.4012575;81.34327;23.300882;;1542.3
1749.0;1616.7;;;;;;;;;;;;;;-0.08038575;1.0004578;-0.33491012;;;;;1542.3
1749.0;1616.7;;;;;;;;;;;;;;;;;7.881405;79.702896;24.578846;;1542.3
1749.0;1616.7;;;;;;;;;;;;;;-0.08417005;0.99288917;-0.3653676;;;;;1542.3
1749.0;1616.7;;;;;;;;;;;;;;;;;9.971923;77.04398;25.818659;;1551.9
1749.0;1616.7;;;;;;;;;;;;;;-0.10809656;0.9884945;-0.4098636;;;;;1551.9
1749.0;1616.7;;;;;;;;;;;;;;;;;13.134403;75.04501;26.360363;;1551.9
1749.0;1616.7;;;;;;;;;;;;;;-0.15033418;0.9898984;-0.4375744;;;;;1551.9
1749.0;1621.2;;;;-0.2681351;1.0252458;0.13272859;;;;;;;;;;;;;;;
1749.0;1621.2;;;;-0.27237704;1.0268289;0.1335373;;;;;;;;;;;;;;;
1749.0;1621.2;;;;-0.27512744;1.0294534;0.13580324;;;;;;;;;;;;;;;
1749.0;1621.2;;;;-0.2756653;1.0330659;0.13778307;;;;;;;;;;;;;;;
1749.0;1621.2;;;;-0.2741852;1.037964;0.14023592;;;;;;;;;;;;;;;
1749.0;1623.8;210667;262143;7205;;;;;;;;;;;;;;;;;;
1749.0;1631.1;;;;-0.27173617;1.0421411;0.14216615;;;;;;;;;;;;;;;
1749.0;1631.1;;;;-0.26849368;1.0452424;0.14324953;;;;;;;;;;;;;;;
1749.0;1631.1;;;;-0.26613238;1.047352;0.14377214;;;;;;;;;;;;;;;
1749.0;1631.1;;;;-0.26428607;1.0483934;0.1443062;;;;;;;;;;;;;;;
1749.0;1631.1;;;;-0.2638245;1.0487024;0.14481737;;;;;;;;;;;;;;;
1751.0;1641.0;;;;-0.26432422;1.0481111;0.14561082;;;;;;;;;;;;;;;
1751.0;1641.0;;;;-0.2660599;1.047558;0.14643098;;;;;;;;;;;;;;;
1751.0;1641.0;;;;-0.26762393;1.0461999;0.14785005;;;;;;;;;;;;;;;
1751.0;1641.0;;;;-0.26874927;1.044571;0.14947511;;;;;;;;;;;;;;;
1751.0;1641.0;;;;-0.27004245;1.0424234;0.15173341;;;;;;;;;;;;;;;
1751.0;1643.6;210649;262143;7215;;;;;;;;;;;;;;;;;;
1751.0;1649.7;;;;;;;;;;;;;-2327;;;;;;;;
1751.0;1649.7;;;;;;;;;;;;;-4789;;;;;;;;
1751.0;1649.7;;;;;;;;;;;;;-12091;;;;;;;;
1751.0;1649.7;;;;;;;;;;;;;-21581;;;;;;;;
1751.0;1649.7;;;;;;;;;;;;;-25184;;;;;;;;
1751.0;1651.1;;;;-0.27162936;1.0402795;0.15427019;;;;;;;;;;;;;;;
1751.0;1651.1;;;;-0.27160648;1.0375711;0.15616228;;;;;;;;;;;;;;;
1751.0;1651.1;;;;-0.27124026;1.0338403;0.15742494;;;;;;;;;;;;;;;
1751.0;1651.1;;;;-0.27001575;1.0310518;0.15856935;;;;;;;;;;;;;;;
1751.0;1651.1;;;;-0.26834872;1.0276147;0.15977861;;;;;;;;;;;;;;;
1751.0;1661.2;;;;-0.26585773;1.0227739;0.16028215;;;;;;;;;;;;;;;
1751.0;1661.2;;;;-0.26347736;1.0186349;0.16077806;;;;;;;;;;;;;;;
1751.0;1661.2;;;;-0.2608681;1.013569;0.16181566;;;;;;;;;;;;;;;
1751.0;1661.2;;;;-0.2586899;1.0094186;0.16212083;;;;;;;;;;;;;;;
1751.0;1661.2;;;;-0.25695804;1.0065347;0.16197588;;;;;;;;;;;;;;;
1753.0;1662.1;;;;;;;;;;;;;;;;;16.354107;75.678276;26.280252;;1561.5
1753.0;1662.1;;;;;;;;;;;;;;-0.22070986;0.997528;-0.45124668;;;;;1561.5
1753.0;1662.1;;;;;;;;;;;;;;;;;20.023956;79.958496;25.017548;;1561.5
1753.0;1662.1;;;;;;;;;;;;;;-0.31275368;1.0162663;-0.45295572;;;;;1561.5
1753.0;1662.1;;;;;;;;;;;;;;;;;23.602253;87.324905;22.419659;;1571.1
1753.0;1662.1;;;;;;;;;;;;;;-0.4163335;1.0459914;-0.436964;;;;;1571.1
1753.0;1662.1;;;;;;;;;;;;;;;;;25.37614;96.69027;18.421736;;1571.1
1753.0;1662.1;;;;;;;;;;;;;;-0.51942503;1.0902432;-0.3751335;;;;;1571.1
1753.0;1662.1;;;;;;;;;;;;;;;;;23.369549;106.12049;13.63033;;1580.7
1753.0;1662.1;;;;;;;;;;;;;;-0.6226997;1.1413312;-0.25971252;;;;;1580.7
1753.0;1662.1;;;;;;;;;;;;;;;;;18.505661;111.66722;8.743553;;1580.7
1753.0;1662.1;;;;;;;;;;;;;;-0.6989349;1.2025514;-0.10699789;;;;;1580.7
1753.0;1662.9;;;;;;;;;;;;;;;;;12.421033;112.556076;4.3488874;;1590.3
1753.0;1662.9;;;;;;;;;;;;;;-0.7467879;1.2822657;0.058290355;;;;;1590.3
1753.0;1662.9;;;;;;;;;;;;;;;;;2.0828884;109.79034;0.7095553;;1590.3
1753.0;1662.9;;;;;;;;;;;;;;-0.77248454;1.348796;0.229194;;;;;1590.3
1753.0;1662.9;;;;;;;;;;;;;;;;;-13.32133;105.05997;-1.1444441;;1599.8
1753.0;1662.9;;;;;;;;;;;;;;-0.7496567;1.3650318;0.37434003;;;;;1599.8
1753.0;1662.9;;;;;;;;;;;;;;;;;-26.844845;97.44179;-1.0872219;;1599.8
1753.0;1662.9;;;;;;;;;;;;;;-0.6949675;1.3472701;0.4591815;;;;;1599.8
1753.0;1662.9;;;;;;;;;;;;;;;;;-34.93606;85.52049;0.8735923;;1609.5
1753.0;1662.9;;;;;;;;;;;;;;-0.59071624;1.2886746;0.44605854;;;;;1609.5
1753.0;1662.9;;;;;;;;;;;;;;;;;-36.96173;72.199165;4.8028507;;1609.5
1753.0;1662.9;;;;;;;;;;;;;;-0.47706535;1.2107913;0.35755485;;;;;1609.5
1810.0;1663.7;210607;262143;7215;;;;;;;;;;;;;;;;;;
1810.0;1671.2;;;;-0.25488666;1.0070649;0.16004182;;;;;;;;;;;;;;;
1810.0;1671.2;;;;-0.25502017;1.0117303;0.16481782;;;;;;;;;;;;;;;
1810.0;1671.2;;;;-0.24994281;1.0064355;0.16980363;;;;;;;;;;;;;;;
1810.0;1671.2;;;;-0.2488518;0.99699795;0.1662903;;;;;;;;;;;;;;;
1810.0;1671.2;;;;-0.24819186;0.99071133;0.15960313;;;;;;;;;;;;;;;
1810.0;1681.2;;;;-0.24486926;0.9835359;0.15961076;;;;;;;;;;;;;;;
1810.0;1681.2;;;;-0.24624637;0.9783441;0.1614876;;;;;;;;;;;;;;;
1810.0;1681.2;;;;-0.25094607;0.9738122;0.16126253;;;;;;;;;;;;;;;
1810.0;1681.2;;;;-0.2521744;0.97062695;0.15918352;;;;;;;;;;;;;;;
1810.0;1681.2;;;;-0.25179675;0.96792233;0.15691377;;;;;;;;;;;;;;;
1810.0;1683.9;210575;262143;7203;;;;;;;;;;;;;;;;;;
1810.0;1690.0;;;;;;;;;;;;;-18381;;;;;;;;
1810.0;1690.0;;;;;;;;;;;;;-6167;;;;;;;;
1810.0;1690.0;;;;;;;;;;;;;2172;;;;;;;;
1810.0;1690.0;;;;;;;;;;;;;2929;;;;;;;;
1810.0;1690.0;;;;;;;;;;;;;334;;;;;;;;
1810.0;1691.1;;;;-0.25070575;0.966694;0.15618517;;;;;;;;;;;;;;;
1810.0;1691.1;;;;-0.2499657;0.96660626;0.15577318;;;;;;;;;;;;;;;
1810.0;1691.1;;;;-0.24828723;0.9664842;0.15466692;;;;;;;;;;;;;;;
1810.0;1691.1;;;;-0.24582294;0.96628964;0.15258028;;;;;;;;;;;;;;;
1810.0;1691.1;;;;-0.24230197;0.9655267;0.1496811;;;;;;;;;;;;;;;
1813.0;1701.0;;;;-0.2394791;0.9651338;0.14715578;;;;;;;;;;;;;;;
1813.0;1701.0;;;;-0.23788455;0.9645158;0.14510728;;;;;;;;;;;;;;;
1813.0;1701.0;;;;-0.23709872;0.96388257;0.14200212;;;;;;;;;;;;;;;
1813.0;1701.0;;;;-0.23634341;0.9630662;0.13918306;;;;;;;;;;;;;;;
1813.0;1701.0;;;;-0.2357178;0.9628755;0.1369629;;;;;;;;;;;;;;;
1813.0;1703.8;210488;262143;7203;;;;;;;;;;;;;;;;;;
1813.0;1711.1;;;;-0.23567966;0.96320355;0.1355324;;;;;;;;;;;;;;;
1813.0;1711.1;;;;-0.23515323;0.9642564;0.13440324;;;;;;;;;;;;;;;
1813.0;1711.1;;;;-0.2344704;0.9655763;0.1327057;;;;;;;;;;;;;;;
1813.0;1711.1;;;;-0.23320392;0.9670602;0.13126756;;;;;;;;;;;;;;;
1813.0;1711.1;;;;-0.23274615;0.969288;0.13048936;;;;;;;;;;;;;;;
1813.0;1721.2;;;;-0.23259357;0.97146237;0.1304474;;;;;;;;;;;;;;;
1813.0;1721.2;;;;-0.23238376;0.97404873;0.12979509;;;;;;;;;;;;;;;
1813.0;1721.2;;;;-0.23245624;0.97654355;0.12979509;;;;;;;;;;;;;;;
1813.0;1721.2;;;;-0.23231891;0.97812665;0.13008119;;;;;;;;;;;;;;;
1813.0;1721.2;;;;-0.23185351;0.98033154;0.13071443;;;;;;;;;;;;;;;
1815.0;1721.7;;;;;;;;;;;;;;;;;-30.90762;55.242317;9.605701;;1619.1
1815.0;1721.7;;;;;;;;;;;;;;-0.36506242;1.1138645;0.23340556;;;;;1619.1
1815.0;1721.7;;;;;;;;;;;;;;;;;-21.282846;32.734917;15.289773;;1619.1
1815.0;1721.7;;;;;;;;;;;;;;-0.2575152;1.0352489;0.12787256;;;;;1619.1
1815.0;1721.7;;;;;;;;;;;;;;;;;-14.290292;4.9401836;21.053957;;1628.8
1815.0;1721.7;;;;;;;;;;;;;;-0.11615345;0.9681082;0.05084384;;;;;1628.8
1815.0;1721.7;;;;;;;;;;;;;;;;;-6.0731835;-21.397291;25.532547;;1628.8
1815.0;1721.7;;;;;;;;;;;;;;0.033448286;0.95345926;0.009521775;;;;;1628.8
1815.0;1721.7;;;;;;;;;;;;;;;;;-1.6479995;-41.753136;25.090029;;1638.4
1815.0;1721.7;;;;;;;;;;;;;;0.18610187;0.8831446;-0.046143986;;;;;1638.4
1815.0;1721.7;;;;;;;;;;;;;;;;;1.678518;-53.899506;21.370586;;1638.4
1815.0;1721.7;;;;;;;;;;;;;;0.27710807;0.8189947;-0.14252144;;;;;1638.4
1815.0;1722.5;;;;;;;;;;;;;;;;;7.8241825;-58.854946;18.35307;;1647.9
1815.0;1722.5;;;;;;;;;;;;;;0.3075045;0.8215583;-0.27198097;;;;;1647.9
1815.0;1722.5;;;;;;;;;;;;;;;;;12.8215885;-60.247353;16.369366;;1647.9
1815.0;1722.5;;;;;;;;;;;;;;0.3128147;0.7849361;-0.4001587;;;;;1647.9
1815.0;1722.5;;;;;;;;;;;;;;;;;21.69103;-60.037537;15.358439;;1657.5
1815.0;1722.5;;;;;;;;;;;;;;0.30756554;0.77681816;-0.51747185;;;;;1657.5
1815.0;1722.5;;;;;;;;;;;;;;;;;31.994843;-57.46254;14.812922;;1657.5
1815.0;1722.5;;;;;;;;;;;;;;0.29706717;0.7727287;-0.6046938;;;;;1657.5
1815.0;1722.5;;;;;;;;;;;;;;;;;40.97873;-51.854763;15.457625;;1667.2
1815.0;1722.5;;;;;;;;;;;;;;0.26319164;0.8069094;-0.6575518;;;;;1667.2
1815.0;1722.5;;;;;;;;;;;;;;;;;46.5598;-40.23484;17.342142;;1667.2
1815.0;1722.5;;;;;;;;;;;;;;0.20966215;0.8478042;-0.67842644;;;;;1667.2
1834.0;1723.8;210499;262143;7203;;;;;;;;;;;;;;;;;;
1834.0;1729.8;;;;;;;;;;;;;-306;;;;;;;;
1834.0;1729.8;;;;;;;;;;;;;871;;;;;;;;
1834.0;1729.8;;;;;;;;;;;;;984;;;;;;;;
1834.0;1729.8;;;;;;;;;;;;;185;;;;;;;;
1834.0;1729.8;;;;;;;;;;;;;-235;;;;;;;;
1834.0;1731.0;;;;-0.23193744;0.9822198;0.13084795;;;;;;;;;;;;;;;
1834.0;1731.0;;;;-0.23139575;0.98362744;0.13213731;;;;;;;;;;;;;;;
1834.0;1731.0;;;;-0.23107913;0.98456204;0.13308336;;;;;;;;;;;;;;;
1834.0;1731.0;;;;-0.23031238;0.9856187;0.13463213;;;;;;;;;;;;;;;
1834.0;1731.0;;;;-0.23004535;0.9862138;0.13538362;;;;;;;;;;;;;;;
1834.0;1740.7;;;;;;;;;;0.2784814;20.104067;-2.094333;;;;;;;;;
1834.0;1740.7;;;;;;;-0.06781213;-1.0063174;0.5489059;;;;;;;;;;;;
1834.0;1740.7;;;;;;;;;;4.5167394;33.486435;9.704886;;;;;;;;;
1834.0;1740.7;;;;;;;-0.11279641;-1.1066011;0.6476028;;;;;;;;;;;;
1834.0;1741.0;;;;-0.22955707;0.98682034;0.13694002;;;;;;;;;;;;;;;
1834.0;1741.0;;;;-0.22856143;0.98762524;0.1377411;;;;;;;;;;;;;;;
1834.0;1741.0;;;;-0.22779468;0.9879266;0.13905717;;;;;;;;;;;;;;;
1834.0;1741.0;;;;-0.22688296;0.9869157;0.1404915;;;;;;;;;;;;;;;
1834.0;1741.0;;;;-0.22541049;0.9858705;0.14209367;;;;;;;;;;;;;;;
1834.0;1743.9;210529;262143;7196;;;;;;;;;;;;;;;;;;
1834.0;1750.2;;;;;;;;;;3.379925;7.148961;1.083407;;;;;;;;;
1834.0;1750.2;;;;;;;-0.14539018;-1.0984222;0.67989135;;;;;;;;;;;;
1834.0;1750.2;;;;;;;;;;12.855922;22.083958;13.0809965;;;;;;;;;
1834.0;1750.2;;;;;;;-0.17908262;-1.0852993;0.7055269;;;;;;;;;;;;
1870.0;1751.0;;;;-0.2235718;0.98554623;0.14299776;;;;;;;;;;;;;;;
1870.0;1751.0;;;;-0.22239307;0.9853555;0.14334871;;;;;;;;;;;;;;;
1870.0;1751.0;;;;-0.221077;0.98526394;0.14363481;;;;;;;;;;;;;;;
1870.0;1751.0;;;;-0.21904376;0.98502743;0.14380266;;;;;;;;;;;;;;;
1870.0;1751.0;;;;-0.21709064;0.98432934;0.14363863;;;;;;;;;;;;;;;
1870.0;1759.6;;;;;;;;;;19.425032;23.65566;16.891996;;;;;;;;;
1870.0;1759.6;;;;;;;-0.20020142;-1.0621052;0.7219459;;;;;;;;;;;;
1870.0;1759.6;;;;;;;;;;21.061586;-15.35081;-2.6169622;;;;;;;;;
1870.0;1759.6;;;;;;;-0.21771905;-1.038789;0.7248756;;;;;;;;;;;;
1870.0;1760.9;;;;-0.21494296;0.98326886;0.14205934;;;;;;;;;;;;;;;
1870.0;1760.9;;;;-0.21259311;0.9827882;0.14032747;;;;;;;;;;;;;;;
1870.0;1760.9;;;;-0.21052554;0.9821359;0.13861085;;;;;;;;;;;;;;;
1870.0;1760.9;;;;-0.20826343;0.98196805;0.13653947;;;;;;;;;;;;;;;
1870.0;1760.9;;;;-0.20536426;0.98110974;0.13484193;;;;;;;;;;;;;;;
1870.0;1763.8;210585;262143;7210;;;;;;;;;;;;;;;;;;
1870.0;1769.2;;;;;;;;;;27.317883;-22.976622;-1.1520737;;;;;;;;;
1870.0;1769.2;;;;;;;-0.22986542;-1.0210882;0.70723593;;;;;;;;;;;;
1870.0;1769.2;;;;;;;;;;33.192696;-33.627583;0.6599628;;;;;;;;;
1870.0;1769.2;;;;;;;-0.22449416;-1.0154119;0.68044066;;;;;;;;;;;;
1870.0;1769.9;;;;;;;;;;;;;-279;;;;;;;;
1870.0;1769.9;;;;;;;;;;;;;-276;;;;;;;;
1870.0;1769.9;;;;;;;;;;;;;-700;;;;;;;;
1870.0;1769.9;;;;;;;;;;;;;-1660;;;;;;;;
1870.0;1769.9;;;;;;;;;;;;;-2463;;;;;;;;
1872.0;1771.0;;;;-0.20341876;0.98033917;0.13199998;;;;;;;;;;;;;;;
1872.0;1771.0;;;;-0.19984058;0.97986615;0.12913896;;;;;;;;;;;;;;;
1872.0;1771.0;;;;-0.19735721;0.9793931;0.12632753;;;;;;;;;;;;;;;
1872.0;1771.0;;;;-0.19568637;0.9784013;0.12263872;;;;;;;;;;;;;;;
1872.0;1771.0;;;;-0.19350055;0.97745144;0.119007125;;;;;;;;;;;;;;;
1872.0;1778.8;;;;;;;;;;37.392803;-38.716545;7.7860346;;;;;;;;;
1872.0;1778.8;;;;;;;-0.19666128;-1.0102237;0.6454054;;;;;;;;;;;;
1872.0;1778.8;;;;;;;;;;37.472916;-40.974915;13.824884;;;;;;;;;
1872.0;1778.8;;;;;;;-0.16351818;-0.9966124;0.61201817;;;;;;;;;;;;
1872.0;1781.1;;;;-0.19084933;0.9763948;0.115100875;;;;;;;;;;;;;;;
1872.0;1781.1;;;;-0.18878177;0.9756166;0.111518875;;;;;;;;;;;;;;;
1872.0;1781.1;;;;-0.18615343;0.9749299;0.10782243;;;;;;;;;;;;;;;
1872.0;1781.1;;;;-0.18408205;0.9739076;0.10323335;;;;;;;;;;;;;;;
1872.0;1781.1;;;;-0.18197633;0.9736062;0.09970476;;;;;;;;;;;;;;;
1872.0;1784.0;210612;262143;7193;;;;;;;;;;;;;;;;;;
1872.0;1788.4;;;;;;;;;;36.782433;-50.59969;13.389997;;;;;;;;;
1872.0;1788.4;;;;;;;-0.13245033;-0.9878231;0.5805841;;;;;;;;;;;;
1872.0;1788.4;;;;;;;;;;36.404766;-59.900204;13.008514;;;;;;;;;
1872.0;1788.4;;;;;;;-0.11133152;-0.97976625;0.5508591;;;;;;;;;;;;
1873.0;1791.2;;;;-0.17965318;0.9738313;0.095748916;;;;;;;;;;;;;;;
1873.0;1791.2;;;;-0.17773058;0.9738008;0.092025764;;;;;;;;;;;;;;;
1873.0;1791.2;;;;-0.17549516;0.97483456;0.088565834;;;;;;;;;;;;;;;
1873.0;1791.2;;;;-0.17414476;0.9763032;0.084571846;;;;;;;;;;;;;;;
1873.0;1791.2;;;;-0.17256929;0.9771844;0.08144761;;;;;;;;;;;;;;;
1873.0;1798.2;;;;;;;;;;;;;;;;;45.388653;-22.953733;18.944365;;1676.8
1873.0;1798.2;;;;;;;;;;;;;;0.1356853;0.87240213;-0.65773493;;;;;1676.8
1873.0;1798.2;;;;;;;;;;;;;;;;;39.84954;-3.154851;19.74929;;1676.8
1873.0;1798.2;;;;;;;;;;;;;;0.065309614;0.8758812;-0.6107364;;;;;1676.8
1873.0;1798.2;;;;;;;;;;;;;;;;;35.096287;17.50618;19.497513;;1686.3
1873.0;1798.2;;;;;;;;;;;;;;0.015259255;0.8645894;-0.57509077;;;;;1686.3
1873.0;1798.2;;;;;;;;;;;;;;;;;31.033508;37.61025;18.54381;;1686.3
1873.0;1798.2;;;;;;;;;;;;;;-0.0145878475;0.8264412;-0.5582446;;;;;1686.3
1873.0;1798.2;;;;;;;;;;;;;;;;;28.02362;54.334393;17.059847;;1695.9
1873.0;1798.2;;;;;;;;;;;;;;-0.049867246;0.80416274;-0.5497604;;;;;1695.9
1873.0;1798.2;;;;;;;;;;;;;;;;;24.28129;65.954315;15.766624;;1695.9
1873.0;1798.2;;;;;;;;;;;;;;-0.076540425;0.78737754;-0.5421308;;;;;1695.9
1873.0;1797.9;;;;;;;;;;36.51921;-69.16257;13.11533;;;;;;;;;
1873.0;1797.9;;;;;;;-0.095156714;-0.9762261;0.5206458;;;;;;;;;;;;
1873.0;1797.9;;;;;;;;;;36.988434;-77.730644;13.561663;;;;;;;;;
1873.0;1797.9;;;;;;;-0.079897456;-0.9729911;0.4989166;;;;;;;;;;;;
1874.0;1798.8;;;;;;;;;;;;;;;;;21.069216;72.115234;14.6641445;;1705.6
1874.0;1798.8;;;;;;;;;;;;;;-0.065065466;0.79116184;-0.5188147;;;;;1705.6
1874.0;1798.8;;;;;;;;;;;;;;;;;18.665884;74.087494;13.866847;;1705.6
1874.0;1798.8;;;;;;;;;;;;;;-0.032837916;0.82180244;-0.47193822;;;;;1705.6
1874.0;1798.8;;;;;;;;;;;;;;;;;16.880552;72.28309;13.283181;;1715.3
1874.0;1798.8;;;;;;;;;;;;;;-0.0021973327;0.87118137;-0.41792047;;;;;1715.3
1874.0;1798.8;;;;;;;;;;;;;;;;;13.733329;67.32384;12.710959;;1715.3
1874.0;1798.8;;;;;;;;;;;;;;0.011108737;0.9082919;-0.36390272;;;;;1715.3
1874.0;1798.8;;;;;;;;;;;;;;;;;11.104922;60.525833;12.279885;;1724.8
1874.0;1798.8;;;;;;;;;;;;;;0.009582812;0.93868834;-0.3209937;;;;;1724.8
1874.0;1798.8;;;;;;;;;;;;;;;;;8.545182;52.999207;11.646626;;1724.8
1874.0;1798.8;;;;;;;;;;;;;;-0.008972442;0.9580981;-0.28931546;;;;;1724.8
1874.0;1800.9;;;;-0.17077638;0.97884;0.07786942;;;;;;;;;;;;;;;
1874.0;1800.9;;;;-0.1693802;0.9815217;0.07382584;;;;;;;;;;;;;;;
1874.0;1800.9;;;;-0.16865923;0.98368466;0.07066346;;;;;;;;;;;;;;;
1874.0;1800.9;;;;-0.16821672;0.98583996;0.06789399;;;;;;;;;;;;;;;
1874.0;1800.9;;;;-0.16815187;0.98757565;0.06583024;;;;;;;;;;;;;;;
1874.0;1803.9;210665;262143;7202;;;;;;;;;;;;;;;;;;
1874.0;1807.3;;;;;;;;;;37.71325;-85.91342;14.591662;;;;;;;;;
1874.0;1807.3;;;;;;;-0.0629902;-0.9622486;0.47346416;;;;;;;;;;;;
1874.0;1807.3;;;;;;;;;;38.563953;-93.977936;16.273996;;;;;;;;;
1874.0;1807.3;;;;;;;-0.039002657;-0.9590747;0.45448163;;;;;;;;;;;;
1931.0;1810.0;;;;;;;;;;;;;-2591;;;;;;;;
1931.0;1810.0;;;;;;;;;;;;;-2540;;;;;;;;
1931.0;1810.0;;;;;;;;;;;;;-2852;;;;;;;;
1931.0;1810.0;;;;;;;;;;;;;-3251;;;;;;;;
1931.0;1810.0;;;;;;;;;;;;;-3145;;;;;;;;
1931.0;1811.0;;;;-0.1680832;0.9897233;0.06308747;;;;;;;;;;;;;;;
1931.0;1811.0;;;;-0.16807939;0.9928514;0.061801918;;;;;;;;;;;;;;;
1931.0;1811.0;;;;-0.1686249;0.99577725;0.061141975;;;;;;;;;;;;;;;
1931.0;1811.0;;;;-0.1688881;1.0000726;0.06038285;;;;;;;;;;;;;;;
1931.0;1811.0;;;;-0.17070772;1.0039598;0.05824662;;;;;;;;;;;;;;;
1931.0;1816.8;;;;;;;;;;39.517654;-102.660446;17.563402;;;;;;;;;
1931.0;1816.8;;;;;;;-0.012939848;-0.96548355;0.4354381;;;;;;;;;;;;
1931.0;1816.8;;;;;;;;;;40.593433;-112.06778;18.265327;;;;;;;;;
1931.0;1816.8;;;;;;;-0.0018311106;-0.9632862;0.41840875;;;;;;;;;;;;
1931.0;1821.0;;;;-0.17021562;1.0081445;0.056888588;;;;;;;;;;;;;;;
1931.0;1821.0;;;;-0.1697693;1.0126039;0.054565437;;;;;;;;;;;;;;;
1931.0;1821.0;;;;-0.16975023;1.0167352;0.051235206;;;;;;;;;;;;;;;
1931.0;1821.0;;;;-0.17040254;1.0223237;0.04795838;;;;;;;;;;;;;;;
1931.0;1821.0;;;;-0.17060854;1.0277368;0.04486466;;;;;;;;;;;;;;;
1931.0;1824.0;210778;262143;7201;;;;;;;;;;;;;;;;;;
1931.0;1826.4;;;;;;;;;;41.177097;-120.910515;19.04355;;;;;;;;;
1931.0;1826.4;;;;;;;0.007934812;-0.9531541;0.39728996;;;;;;;;;;;;
1931.0;1826.4;;;;;;;;;;41.4098;-124.652855;19.56618;;;;;;;;;
1931.0;1826.4;;;;;;;0.02887051;-0.9493698;0.38441116;;;;;;;;;;;;
1951.0;1831.1;;;;-0.17069627;1.032013;0.041881565;;;;;;;;;;;;;;;
1951.0;1831.1;;;;-0.17153932;1.036213;0.038745884;;;;;;;;;;;;;;;
1951.0;1831.1;;;;-0.17444612;1.0409242;0.035221104;;;;;;;;;;;;;;;
1951.0;1831.1;;;;-0.1758957;1.0447961;0.03173447;;;;;;;;;;;;;;;
1951.0;1831.1;;;;-0.1764145;1.049637;0.0276413;;;;;;;;;;;;;;;
1951.0;1836.1;;;;;;;;;;41.734062;-124.881744;19.341106;;;;;;;;;
1951.0;1836.1;;;;;;;0.04504532;-0.9471114;0.36725974;;;;;;;;;;;;
1951.0;1836.1;;;;;;;;;;41.98584;-124.881744;19.24955;;;;;;;;;
1951.0;1836.1;;;;;;;0.067201756;-0.9501022;0.3551134;;;;;;;;;;;;
1951.0;1841.2;;;;-0.17863466;1.0532495;0.024120335;;;;;;;;;;;;;;;
1951.0;1841.2;;;;-0.17866518;1.0563928;0.020679476;;;;;;;;;;;;;;;
1951.0;1841.2;;;;-0.17952348;1.0589257;0.016456606;;;;;;;;;;;;;;;
1951.0;1841.2;;;;-0.18063737;1.0611726;0.013431551;;;;;;;;;;;;;;;
1951.0;1841.2;;;;-0.18027116;1.0619699;0.0100860605;;;;;;;;;;;;;;;
1953.0;1842.0;;;;;;;;;;;;;;;;;5.9244056;44.804985;10.65096;;1734.4
1953.0;1842.0;;;;;;;;;;;;;;-0.03320414;0.9681692;-0.27246925;;;;;1734.4
1953.0;1842.0;;;;;;;;;;;;;;;;;3.4257026;36.24073;9.281442;;1734.4
1953.0;1842.0;;;;;;;;;;;;;;-0.0590228;0.9700003;-0.26392406;;;;;1734.4
1953.0;1842.0;;;;;;;;;;;;;;;;;1.4381847;27.871029;7.7135534;;1744.1
1953.0;1842.0;;;;;;;;;;;;;;-0.07556383;0.96194345;-0.27918333;;;;;1744.1
1953.0;1842.0;;;;;;;;;;;;;;;;;0.79729605;20.996735;5.9739985;;1744.1
1953.0;1842.0;;;;;;;;;;;;;;-0.08905301;0.9438154;-0.32056642;;;;;1744.1
1953.0;1842.0;;;;;;;;;;;;;;;;;1.8959624;16.51433;4.4557023;;1753.6
1953.0;1842.0;;;;;;;;;;;;;;-0.08996857;0.91744745;-0.3762932;;;;;1753.6
1953.0;1842.0;;;;;;;;;;;;;;;;;4.5358133;14.854885;3.4676657;;1753.6
1953.0;1842.0;;;;;;;;;;;;;;-0.0822779;0.8982208;-0.43452254;;;;;1753.6
1953.0;1842.9;;;;;;;;;;;;;;;;;7.614368;15.037995;2.9183326;;1763.3
1953.0;1842.9;;;;;;;;;;;;;;-0.06646931;0.8846095;-0.49403363;;;;;1763.3
1953.0;1842.9;;;;;;;;;;;;;;;;;10.635701;16.994993;3.07474;;1763.3
1953.0;1842.9;;;;;;;;;;;;;;-0.042115543;0.89278847;-0.5366985;;;;;1763.3
1953.0;1842.9;;;;;;;;;;;;;;;;;12.909329;19.901882;3.1853695;;1772.8
1953.0;1842.9;;;;;;;;;;;;;;-0.016113773;0.91531116;-0.56630147;;;;;1772.8
1953.0;1842.9;;;;;;;;;;;;;;;;;14.275033;23.537401;3.5096285;;1772.8
1953.0;1842.9;;;;;;;;;;;;;;0.012451552;0.93868834;-0.5799127;;;;;1772.8
1953.0;1842.9;;;;;;;;;;;;;;;;;14.465774;27.165289;3.566851;;1782.5
1953.0;1842.9;;;;;;;;;;;;;;0.03546251;0.96493423;-0.5769219;;;;;1782.5
1953.0;1842.9;;;;;;;;;;;;;;;;;14.172032;30.606249;3.234962;;1782.5
1953.0;1842.9;;;;;;;;;;;;;;0.06256294;0.9833674;-0.56825465;;;;;1782.5
1954.0;1844.2;210764;262143;7194;;;;;;;;;;;;;;;;;;
1954.0;1845.5;;;;;;;;;;41.940063;-124.881744;18.974884;;;;;;;;;
1954.0;1845.5;;;;;;;0.09198279;-0.94735557;0.34107485;;;;;;;;;;;;
1954.0;1845.5;;;;;;;;;;41.642506;-124.881744;19.024477;;;;;;;;;
1954.0;1845.5;;;;;;;0.12164678;-0.9522996;0.3221534;;;;;;;;;;;;
1954.0;1850.2;;;;;;;;;;;;;-2389;;;;;;;;
1954.0;1850.2;;;;;;;;;;;;;-1676;;;;;;;;
1954.0;1850.2;;;;;;;;;;;;;-1433;;;;;;;;
1954.0;1850.2;;;;;;;;;;;;;-1179;;;;;;;;
1954.0;1850.2;;;;;;;;;;;;;-450;;;;;;;;
1954.0;1851.2;;;;-0.1819954;1.0620233;0.0063591013;;;;;;;;;;;;;;;
1954.0;1851.2;;;;-0.1837311;1.0611459;0.0034141545;;;;;;;;;;;;;;;
1954.0;1851.2;;;;-0.18418886;1.0603448;0.0011901857;;;;;;;;;;;;;;;
1954.0;1851.2;;;;-0.18513109;1.0579149;-3.128052E-4;;;;;;;;;;;;;;;
1954.0;1851.2;;;;-0.18602373;1.0544893;-0.0026168826;;;;;;;;;;;;;;;
1954.0;1855.1;;;;;;;;;;41.016876;-124.881744;19.253365;;;;;;;;;
1954.0;1855.1;;;;;;;0.15033418;-0.9504685;0.3014008;;;;;;;;;;;;
1954.0;1855.1;;;;;;;;;;40.18143;-124.881744;19.695883;;;;;;;;;
1954.0;1855.1;;;;;;;0.17413862;-0.9470504;0.2814417;;;;;;;;;;;;
1954.0;1861.2;;;;-0.18817905;1.050831;-0.0047874455;;;;;;;;;;;;;;;
1954.0;1861.2;;;;-0.18975833;1.0467187;-0.0062828073;;;;;;;;;;;;;;;
1954.0;1861.2;;;;-0.18972781;1.042267;-0.007522584;;;;;;;;;;;;;;;
1954.0;1861.2;;;;-0.19061664;1.0374643;-0.00807953;;;;;;;;;;;;;;;
1954.0;1861.2;;;;-0.19160846;1.0322992;-0.010032655;;;;;;;;;;;;;;;
1991.0;1864.7;;;;;;;;;;39.21628;-124.881744;20.622883;;;;;;;;;
1991.0;1864.7;;;;;;;0.20075075;-0.9429609;0.25641653;;;;;;;;;;;;
1991.0;1864.7;;;;;;;;;;38.068027;-124.881744;22.209845;;;;;;;;;
1991.0;1864.7;;;;;;;0.22278512;-0.93630785;0.2313303;;;;;;;;;;;;
1991.0;1864.3;210663;262143;7192;;;;;;;;;;;;;;;;;;
1991.0;1871.1;;;;-0.19297794;1.0262376;-0.010761262;;;;;;;;;;;;;;;
1991.0;1871.1;;;;-0.19399264;1.0199167;-0.012248995;;;;;;;;;;;;;;;
1991.0;1871.1;;;;-0.19469455;1.0134584;-0.012569429;;;;;;;;;;;;;;;
1991.0;1871.1;;;;-0.19618228;1.0077783;-0.012855532;;;;;;;;;;;;;;;
1991.0;1871.1;;;;-0.19858935;1.0025293;-0.012859346;;;;;;;;;;;;;;;
1991.0;1874.1;;;;;;;;;;36.957916;-124.881744;24.327068;;;;;;;;;
1991.0;1874.1;;;;;;;0.23377179;-0.9322794;0.20636617;;;;;;;;;;;;
1991.0;1874.1;;;;;;;;;;36.0271;-124.881744;26.749474;;;;;;;;;
1991.0;1874.1;;;;;;;0.2320017;-0.9294107;0.18463698;;;;;;;;;;;;
1991.0;1881.2;;;;-0.19995502;0.9957925;-0.013397219;;;;;;;;;;;;;;;
1991.0;1881.2;;;;-0.2011452;0.9904634;-0.013656618;;;;;;;;;;;;;;;
1991.0;1881.2;;;;-0.20168307;0.98474514;-0.014789583;;;;;;;;;;;;;;;
1991.0;1881.2;;;;-0.20243075;0.97919095;-0.015026094;;;;;;;;;;;;;;;
1991.0;1881.2;;;;-0.20343783;0.9737741;-0.014595034;;;;;;;;;;;;;;;
1991.0;1883.7;;;;;;;;;;35.538803;-124.881744;29.152807;;;;;;;;;
1991.0;1883.7;;;;;;;0.22003846;-0.9234901;0.16467787;;;;;;;;;;;;
1991.0;1883.7;;;;;;;;;;35.38621;-124.881744;31.521805;;;;;;;;;
1991.0;1883.7;;;;;;;0.21430098;-0.91909546;0.14703818;;;;;;;;;;;;
1993.0;1884.4;210591;262143;7211;;;;;;;;;;;;;;;;;;
1993.0;1890.5;;;;;;;;;;;;;436;;;;;;;;
1993.0;1890.5;;;;;;;;;;;;;847;;;;;;;;
1993.0;1890.5;;;;;;;;;;;;;707;;;;;;;;
1993.0;1890.5;;;;;;;;;;;;;76;;;;;;;;
1993.0;1890.5;;;;;;;;;;;;;-978;;;;;;;;
1993.0;1891.3;;;;-0.205452;0.9682466;-0.01432419;;;;;;;;;;;;;;;
1993.0;1891.3;;;;-0.20829394;0.9631425;-0.014148714;;;;;;;;;;;;;;;
1993.0;1891.3;;;;-0.21024707;0.95842755;-0.013969423;;;;;;;;;;;;;;;
1993.0;1891.3;;;;-0.21229556;0.95383465;-0.013786318;;;;;;;;;;;;;;;
1993.0;1891.3;;;;-0.21377185;0.9500314;-0.013164522;;;;;;;;;;;;;;;
1993.0;1893.4;;;;;;;;;;35.428173;-124.83596;33.6314;;;;;;;;;
1993.0;1893.4;;;;;;;0.21509446;-0.9126255;0.12872708;;;;;;;;;;;;
1993.0;1893.4;;;;;;;;;;35.481583;-123.59233;35.317543;;;;;;;;;
1993.0;1893.4;;;;;;;0.21625416;-0.9072543;0.11334574;;;;;;;;;;;;
1993.0;1901.4;;;;-0.21626285;0.94609463;-0.013286592;;;;;;;;;;;;;;;
1993.0;1901.4;;;;-0.21860507;0.9436761;-0.012954714;;;;;;;;;;;;;;;
1993.0;1901.4;;;;-0.22044376;0.94192135;-0.0129585285;;;;;;;;;;;;;;;
1993.0;1901.4;;;;-0.22235492;0.93997204;-0.013866426;;;;;;;;;;;;;;;
1993.0;1901.4;;;;-0.22461322;0.93919003;-0.013721468;;;;;;;;;;;;;;;
1993.0;1903.0;;;;;;;;;;35.6151;-119.251076;36.91595;;;;;;;;;
1993.0;1903.0;;;;;;;0.21692556;-0.9059725;0.10187078;;;;;;;;;;;;
1993.0;1903.0;;;;;;;;;;36.038544;-114.01715;38.502914;;;;;;;;;
1993.0;1903.0;;;;;;;0.21808527;-0.8971221;0.09009064;;;;;;;;;;;;
1996.0;1903.3;;;;;;;;;;;;;;;;;13.775291;34.39436;2.76574;;1792.1
1996.0;1903.3;;;;;;;;;;;;;;0.08716086;0.9947203;-0.549089;;;;;1792.1
1996.0;1903.3;;;;;;;;;;;;;;;;;12.382885;37.839138;2.1973326;;1792.1
1996.0;1903.3;;;;;;;;;;;;;;0.110415965;1.0035096;-0.519364;;;;;1792.1
1996.0;1903.3;;;;;;;;;;;;;;;;;9.754478;41.158024;1.4381847;;1801.8
1996.0;1903.3;;;;;;;;;;;;;;0.13959166;0.99935913;-0.4828028;;;;;1801.8
1996.0;1903.3;;;;;;;;;;;;;;;;;6.75985;44.92706;0.21744438;;1801.8
1996.0;1903.3;;;;;;;;;;;;;;0.16565447;0.9947813;-0.44611958;;;;;1801.8
1996.0;1903.3;;;;;;;;;;;;;;;;;3.5554063;49.726093;-1.4038514;;1811.5
1996.0;1903.3;;;;;;;;;;;;;;0.18182927;0.98733485;-0.40864283;;;;;1811.5
1996.0;1903.3;;;;;;;;;;;;;;;;;0.24033326;55.204166;-3.318888;;1811.5
1996.0;1903.3;;;;;;;;;;;;;;0.18860438;0.97653127;-0.37568286;;;;;1811.5
1996.0;1904.5;;;;;;;;;;;;;;;;;-2.7581105;60.58687;-5.2415543;;1821.0
1996.0;1904.5;;;;;;;;;;;;;;0.19013031;0.9818415;-0.34107485;;;;;1821.0
1996.0;1904.5;;;;;;;;;;;;;;;;;-5.996887;65.553764;-6.878109;;1821.0
1996.0;1904.5;;;;;;;;;;;;;;0.1848201;0.9792169;-0.31141087;;;;;1821.0
1996.0;1904.5;;;;;;;;;;;;;;;;;-9.609516;69.498276;-8.468886;;1830.6
1996.0;1904.5;;;;;;;;;;;;;;0.17438276;0.9631031;-0.27838984;;;;;1830.6
1996.0;1904.5;;;;;;;;;;;;;;;;;-11.638996;71.920685;-9.994812;;1830.6
1996.0;1904.5;;;;;;;;;;;;;;0.17450483;0.9253212;-0.25141147;;;;;1830.6
1996.0;1904.5;;;;;;;;;;;;;;;;;-11.616108;73.64117;-11.368145;;1840.2
1996.0;1904.5;;;;;;;;;;;;;;0.16205329;0.93844414;-0.22174749;;;;;1840.2
1996.0;1904.5;;;;;;;;;;;;;;;;;-12.249367;75.399796;-12.913144;;1840.2
1996.0;1904.5;;;;;;;;;;;;;;0.15271463;0.91616565;-0.21131016;;;;;1840.2
2002.0;1904.6;210575;262143;7209;;;;;;;;;;;;;;;;;;
2002.0;1911.4;;;;-0.22803882;0.93511593;-0.01539612;;;;;;;;;;;;;;;
2002.0;1911.4;;;;-0.22939304;0.93088925;-0.021038057;;;;;;;;;;;;;;;
2002.0;1911.4;;;;-0.23479846;0.93200314;-0.025997166;;;;;;;;;;;;;;;
2002.0;1911.4;;;;-0.23761752;0.9354974;-0.027839664;;;;;;;;;;;;;;;
2002.0;1911.4;;;;-0.23976901;0.9407159;-0.029804233;;;;;;;;;;;;;;;
2002.0;1912.5;;;;;;;;;;36.404766;-108.603935;39.84954;;;;;;;;;
2002.0;1912.5;;;;;;;0.21741386;-0.8860134;0.08160649;;;;;;;;;;;;
2002.0;1912.5;;;;;;;;;;36.26362;-103.068634;40.906246;;;;;;;;;
2002.0;1912.5;;;;;;;0.21704765;-0.87398905;0.075014494;;;;;;;;;;;;
2002.0;1921.4;;;;-0.24326327;0.9478036;-0.034980778;;;;;;;;;;;;;;;
2002.0;1921.4;;;;-0.24522403;0.95430386;-0.0384903;;;;;;;;;;;;;;;
2002.0;1921.4;;;;-0.2441521;0.9592515;-0.044097904;;;;;;;;;;;;;;;
2002.0;1921.4;;;;-0.2445145;0.9645692;-0.049957283;;;;;;;;;;;;;;;
2002.0;1921.4;;;;-0.2425957;0.9708177;-0.054042824;;;;;;;;;;;;;;;
2002.0;1922.0;;;;;;;;;;35.874508;-98.1132;41.600544;;;;;;;;;
2002.0;1922.0;;;;;;;0.21387371;-0.8578753;0.07269509;;;;;;;;;;;;
2002.0;1922.0;;;;;;;;;;35.41673;-93.66894;42.119358;;;;;;;;;
2002.0;1922.0;;;;;;;0.20130008;-0.85238194;0.07367168;;;;;;;;;;;;
2002.0;1924.7;210586;262143;7207;;;;;;;;;;;;;;;;;;
2002.0;1930.7;;;;;;;;;;;;;-1826;;;;;;;;
2002.0;1930.7;;;;;;;;;;;;;-1874;;;;;;;;
2002.0;1930.7;;;;;;;;;;;;;-1310;;;;;;;;
2002.0;1930.7;;;;;;;;;;;;;-743;;;;;;;;
2002.0;1930.7;;;;;;;;;;;;;-610;;;;;;;;
2052.0;1931.4;;;;-0.24143603;0.9769937;-0.0571251;;;;;;;;;;;;;;;
2052.0;1931.4;;;;-0.24153522;0.9824678;-0.061622627;;;;;;;;;;;;;;;
2052.0;1931.4;;;;-0.24099734;0.98775494;-0.066452034;;;;;;;;;;;;;;;
2052.0;1931.4;;;;-0.24227908;0.9920732;-0.071918495;;;;;;;;;;;;;;;
2052.0;1931.4;;;;-0.24472049;0.99681866;-0.07725907;;;;;;;;;;;;;;;
2052.0;1931.5;;;;;;;;;;35.12299;-90.0296;42.378765;;;;;;;;;
2052.0;1931.5;;;;;;;0.1853084;-0.8501846;0.07678457;;;;;;;;;;;;
2052.0;1931.5;;;;;;;;;;34.95132;-87.054054;42.439804;;;;;;;;;
2052.0;1931.5;;;;;;;0.17218544;-0.84524065;0.07806635;;;;;;;;;;;;
2052.0;1941.0;;;;;;;;;;34.787285;-84.49812;42.405468;;;;;;;;;
2052.0;1941.0;;;;;;;0.16840114;-0.83895385;0.080568865;;;;;;;;;;;;
2052.0;1941.0;;;;;;;;;;34.51262;-81.97272;42.37495;;;;;;;;;
2052.0;1941.0;;;;;;;0.17218544;-0.83205664;0.08459731;;;;;;;;;;;;
2052.0;1941.3;;;;-0.24798587;1.0016786;-0.08268357;;;;;;;;;;;;;;;
2052.0;1941.3;;;;-0.25257114;1.0066491;-0.08771134;;;;;;;;;;;;;;;
2052.0;1941.3;;;;-0.25725177;1.0129548;-0.094066635;;;;;;;;;;;;;;;
2052.0;1941.3;;;;-0.26052096;1.0209619;-0.10025026;;;;;;;;;;;;;;;
2052.0;1941.3;;;;-0.26466754;1.0281335;-0.107215896;;;;;;;;;;;;;;;
2052.0;1944.7;210576;262143;7216;;;;;;;;;;;;;;;;;;
2052.0;1950.6;;;;;;;;;;34.161655;-79.59227;42.09647;;;;;;;;;
2052.0;1950.6;;;;;;;0.18298899;-0.8258919;0.08783227;;;;;;;;;;;;
2052.0;1950.6;;;;;;;;;;33.71151;-77.08213;41.673023;;;;;;;;;
2052.0;1950.6;;;;;;;0.19098483;-0.82216865;0.09308145;;;;;;;;;;;;
2053.0;1951.4;;;;-0.2667084;1.0354959;-0.11258699;;;;;;;;;;;;;;;
2053.0;1951.4;;;;-0.26874164;1.0433694;-0.11773302;;;;;;;;;;;;;;;
2053.0;1951.4;;;;-0.27053836;1.0503274;-0.12397005;;;;;;;;;;;;;;;
2053.0;1951.4;;;;-0.27377322;1.0565149;-0.12923433;;;;;;;;;;;;;;;
2053.0;1951.4;;;;-0.27720264;1.0617296;-0.13444902;;;;;;;;;;;;;;;
2053.0;1960.2;;;;;;;;;;33.284252;-74.25153;41.268654;;;;;;;;;
2053.0;1960.2;;;;;;;0.19879757;-0.8181402;0.09833064;;;;;;;;;;;;
2053.0;1960.2;;;;;;;;;;32.73873;-71.256905;40.91769;;;;;;;;;
2053.0;1960.2;;;;;;;0.20563371;-0.81508833;0.102725305;;;;;;;;;;;;
2053.0;1961.5;;;;-0.27752307;1.0680276;-0.13899995;;;;;;;;;;;;;;;
2053.0;1961.5;;;;-0.27702716;1.0749246;-0.14292146;;;;;;;;;;;;;;;
2053.0;1961.5;;;;-0.27801898;1.0808374;-0.14696504;;;;;;;;;;;;;;;
2053.0;1961.5;;;;-0.27806094;1.0877229;-0.15082933;;;;;;;;;;;;;;;
2053.0;1961.5;;;;-0.27650455;1.0934793;-0.15485384;;;;;;;;;;;;;;;
2054.0;1962.7;;;;;;;;;;;;;;;;;-13.126774;76.74261;-13.977477;;1849.9
2054.0;1962.7;;;;;;;;;;;;;;0.143437;0.87923825;-0.19501327;;;;;1849.9
2054.0;1962.7;;;;;;;;;;;;;;;;;-10.528886;77.715385;-14.32081;;1849.9
2054.0;1962.7;;;;;;;;;;;;;;0.14606158;0.88662374;-0.17688528;;;;;1849.9
2054.0;1962.7;;;;;;;;;;;;;;;;;-8.4421835;78.60042;-14.316996;;1859.5
2054.0;1962.7;;;;;;;;;;;;;;0.14929655;0.9047517;-0.17047639;;;;;1859.5
2054.0;1962.7;;;;;;;;;;;;;;;;;-7.309183;78.98572;-14.057589;;1859.5
2054.0;1962.7;;;;;;;;;;;;;;0.15021211;0.92043823;-0.17590868;;;;;1859.5
2054.0;1962.7;;;;;;;;;;;;;;;;;-6.431776;78.9819;-13.225959;;1869.1
2054.0;1962.7;;;;;;;;;;;;;;0.15021211;0.9418622;-0.18939787;;;;;1869.1
2054.0;1962.7;;;;;;;;;;;;;;;;;-6.6072574;78.83312;-12.359997;;1869.1
2054.0;1962.7;;;;;;;;;;;;;;0.14374217;0.95687735;-0.2036195;;;;;1869.1
2054.0;1963.5;;;;;;;;;;;;;;;;;-7.4007387;78.38297;-11.246071;;1878.7
2054.0;1963.5;;;;;;;;;;;;;;0.13843197;0.9659719;-0.22412793;;;;;1878.7
2054.0;1963.5;;;;;;;;;;;;;;;;;-8.857997;77.894684;-10.086368;;1878.7
2054.0;1963.5;;;;;;;;;;;;;;0.13733329;0.95669425;-0.23944822;;;;;1878.7
2054.0;1963.5;;;;;;;;;;;;;;;;;-9.5675535;77.501755;-9.10596;;1888.4
2054.0;1963.5;;;;;;;;;;;;;;0.14300974;0.9162267;-0.25647756;;;;;1888.4
2054.0;1963.5;;;;;;;;;;;;;;;;;-7.477035;77.28813;-8.4421835;;1888.4
2054.0;1963.5;;;;;;;;;;;;;;0.14136174;0.91598254;-0.2680746;;;;;1888.4
2054.0;1963.5;;;;;;;;;;;;;;;;;-5.794702;77.44072;-7.889035;;1898.0
2054.0;1963.5;;;;;;;;;;;;;;0.12439345;0.92336804;-0.27442244;;;;;1898.0
2054.0;1963.5;;;;;;;;;;;;;;;;;-5.4589987;77.97479;-7.515183;;1898.0
2054.0;1963.5;;;;;;;;;;;;;;0.0992462;0.92538226;-0.2682577;;;;;1898.0
2110.0;1964.9;210547;262143;7222;;;;;;;;;;;;;;;;;;
2110.0;1969.7;;;;;;;;;;32.17414;-68.105865;40.746025;;;;;;;;;
2110.0;1969.7;;;;;;;0.20844142;-0.8116703;0.11017182;;;;;;;;;;;;
2110.0;1969.7;;;;;;;;;;31.495102;-65.14176;40.643024;;;;;;;;;
2110.0;1969.7;;;;;;;0.21210364;-0.80813015;0.11767937;;;;;;;;;;;;
2110.0;1970.8;;;;;;;;;;;;;-612;;;;;;;;
2110.0;1970.8;;;;;;;;;;;;;-183;;;;;;;;
2110.0;1970.8;;;;;;;;;;;;;413;;;;;;;;
2110.0;1970.8;;;;;;;;;;;;;703;;;;;;;;
2110.0;1970.8;;;;;;;;;;;;;853;;;;;;;;
2110.0;1971.5;;;;-0.2793236;1.0999147;-0.15806581;;;;;;;;;;;;;;;
2110.0;1971.5;;;;-0.2812958;1.1056405;-0.16085817;;;;;;;;;;;;;;;
2110.0;1971.5;;;;-0.28203967;1.1109697;-0.16395952;;;;;;;;;;;;;;;
2110.0;1971.5;;;;-0.28444293;1.1190072;-0.16589738;;;;;;;;;;;;;;;
2110.0;1971.5;;;;-0.28616717;1.1243783;-0.16801073;;;;;;;;;;;;;;;
2110.0;1979.2;;;;;;;;;;30.751213;-62.387463;40.540024;;;;;;;;;
2110.0;1979.2;;;;;;;0.21222572;-0.80764186;0.1246376;;;;;;;;;;;;
2110.0;1979.2;;;;;;;;;;29.873806;-60.052795;40.501877;;;;;;;;;
2110.0;1979.2;;;;;;;0.2066103;-0.8080691;0.12842189;;;;;;;;;;;;
2110.0;1981.5;;;;-0.2864075;1.1320344;-0.16924669;;;;;;;;;;;;;;;
2110.0;1981.5;;;;-0.28430942;1.1423799;-0.17064668;;;;;;;;;;;;;;;
2110.0;1981.5;;;;-0.28413013;1.1494256;-0.170002;;;;;;;;;;;;;;;
2110.0;1981.5;;;;-0.2865334;1.151024;-0.17292787;;;;;;;;;;;;;;;
2110.0;1981.5;;;;-0.28979495;1.1573144;-0.178154;;;;;;;;;;;;;;;
2110.0;1985.0;210378;262143;7233;;;;;;;;;;;;;;;;;;
2113.0;1988.8;;;;;;;;;;28.832361;-58.118687;40.57817;;;;;;;;;
2113.0;1988.8;;;;;;;0.20111698;-0.8080081;0.13367108;;;;;;;;;;;;
2113.0;1988.8;;;;;;;;;;27.680288;-56.440166;40.715508;;;;;;;;;
2113.0;1988.8;;;;;;;0.19086276;-0.8092288;0.13855404;;;;;;;;;;;;
2113.0;1991.6;;;;-0.29588702;1.1682588;-0.17921068;;;;;;;;;;;;;;;
2113.0;1991.6;;;;-0.2982979;1.178032;-0.17626573;;;;;;;;;;;;;;;
2113.0;1991.6;;;;-0.3029938;1.1839448;-0.17675783;;;;;;;;;;;;;;;
2113.0;1991.6;;;;-0.30961612;1.1908723;-0.17926408;;;;;;;;;;;;;;;
2113.0;1991.6;;;;-0.30886462;1.2021638;-0.1803322;;;;;;;;;;;;;;;
2113.0;1998.3;;;;;;;;;;26.375622;-55.26902;40.849026;;;;;;;;;
2113.0;1998.3;;;;;;;0.18543047;-0.8089236;0.14075136;;;;;;;;;;;;
2113.0;1998.3;;;;;;;;;;24.918362;-54.662468;41.062653;;;;;;;;;
2113.0;1998.3;;;;;;;0.17804499;-0.8069094;0.14398633;;;;;;;;;;;;
2113.0;2001.5;;;;-0.30547336;1.2107621;-0.18262102;;;;;;;;;;;;;;;
2113.0;2001.5;;;;-0.30420688;1.2142907;-0.18205263;;;;;;;;;;;;;;;
2113.0;2001.5;;;;-0.30533984;1.2202379;-0.18114854;;;;;;;;;;;;;;;
2113.0;2001.5;;;;-0.30139926;1.2277757;-0.18363954;;;;;;;;;;;;;;;
2113.0;2001.5;;;;-0.2956505;1.2326471;-0.18616487;;;;;;;;;;;;;;;
2113.0;2005.1;210121;262143;7237;;;;;;;;;;;;;;;;;;
2113.0;2007.9;;;;;;;;;;23.289438;-54.406876;41.27247;;;;;;;;;
2113.0;2007.9;;;;;;;0.17554247;-0.80898464;0.14612262;;;;;;;;;;;;
2113.0;2007.9;;;;;;;;;;21.622364;-54.494614;41.49373;;;;;;;;;
2113.0;2007.9;;;;;;;0.17297891;-0.8085574;0.14703818;;;;;;;;;;;;
2114.0;2011.1;;;;;;;;;;;;;952;;;;;;;;
2114.0;2011.1;;;;;;;;;;;;;833;;;;;;;;
2114.0;2011.1;;;;;;;;;;;;;643;;;;;;;;
2114.0;2011.1;;;;;;;;;;;;;712;;;;;;;;
2114.0;2011.1;;;;;;;;;;;;;962;;;;;;;;
2114.0;2011.7;;;;-0.29325488;1.2354547;-0.18727876;;;;;;;;;;;;;;;
2114.0;2011.7;;;;-0.29230502;1.2360231;-0.18886188;;;;;;;;;;;;;;;
2114.0;2011.7;;;;-0.29405978;1.2378427;-0.19111636;;;;;;;;;;;;;;;
2114.0;2011.7;;;;-0.29528812;1.2376214;-0.19261554;;;;;;;;;;;;;;;
2114.0;2011.7;;;;-0.29732898;1.2343675;-0.1932793;;;;;;;;;;;;;;;
2114.0;2017.6;;;;;;;;;;19.863733;-54.906612;41.711174;;;;;;;;;
2114.0;2017.6;;;;;;;0.17151402;-0.8091067;0.14960173;;;;;;;;;;;;
2114.0;2017.6;;;;;;;;;;17.986847;-55.3415;41.98584;;;;;;;;;
2114.0;2017.6;;;;;;;0.17133091;-0.81130403;0.14935759;;;;;;;;;;;;
2114.0;2021.8;;;;-0.3014603;1.2310258;-0.19407657;;;;;;;;;;;;;;;
2114.0;2021.8;;;;-0.3028641;1.2284127;-0.19355777;;;;;;;;;;;;;;;
2114.0;2021.8;;;;-0.30438235;1.2283975;-0.19364932;;;;;;;;;;;;;;;
2114.0;2021.8;;;;-0.30414966;1.2265893;-0.19382098;;;;;;;;;;;;;;;
2114.0;2021.8;;;;-0.30572894;1.2217027;-0.19444278;;;;;;;;;;;;;;;
2115.0;2022.9;;;;;;;;;;;;;;;;;-5.00885;78.84457;-7.374035;;1907.7
2115.0;2022.9;;;;;;;;;;;;;;0.07275613;0.9312418;-0.24939726;;;;;1907.7
2115.0;2022.9;;;;;;;;;;;;;;;;;-5.4589987;80.24842;-7.5037384;;1907.7
2115.0;2022.9;;;;;;;;;;;;;;0.04388562;0.93630785;-0.23419905;;;;;1907.7
2115.0;2022.9;;;;;;;;;;;;;;;;;-5.9053316;81.831566;-7.7288127;;1917.2
2115.0;2022.9;;;;;;;;;;;;;;0.013611255;0.9413129;-0.22180852;;;;;1917.2
2115.0;2022.9;;;;;;;;;;;;;;;;;-6.9277015;83.37657;-8.0835905;;1917.2
2115.0;2022.9;;;;;;;;;;;;;;-0.016663106;0.94106877;-0.21637623;;;;;1917.2
2115.0;2022.9;;;;;;;;;;;;;;;;;-8.095035;84.60113;-8.743553;;1926.8
2115.0;2022.9;;;;;;;;;;;;;;-0.047181617;0.9389325;-0.22363964;;;;;1926.8
2115.0;2022.9;;;;;;;;;;;;;;;;;-8.774072;85.61205;-9.4073305;;1926.8
2115.0;2022.9;;;;;;;;;;;;;;-0.076662496;0.93563646;-0.23767816;;;;;1926.8
2115.0;2024.1;;;;;;;;;;;;;;;;;-8.869442;86.02786;-10.078737;;1936.5
2115.0;2024.1;;;;;;;;;;;;;;-0.09753716;0.9272744;-0.26026186;;;;;1936.5
2115.0;2024.1;;;;;;;;;;;;;;;;;-8.743553;86.47801;-10.692923;;1936.5
2115.0;2024.1;;;;;;;;;;;;;;-0.12262337;0.9139073;-0.28333384;;;;;1936.5
2115.0;2024.1;;;;;;;;;;;;;;;;;-8.007294;87.07694;-11.394848;;1946.1
2115.0;2024.1;;;;;;;;;;;;;;-0.1445967;0.903531;-0.30909148;;;;;1946.1
2115.0;2024.1;;;;;;;;;;;;;;;;;-5.954924;87.961975;-12.207404;;1946.1
2115.0;2024.1;;;;;;;;;;;;;;-0.1737724;0.9009674;-0.3344218;;;;;1946.1
2115.0;2024.1;;;;;;;;;;;;;;;;;-2.8191473;88.96908;-13.264108;;1955.8
2115.0;2024.1;;;;;;;;;;;;;;-0.20410779;0.9026154;-0.35938597;;;;;1955.8
2115.0;2024.1;;;;;;;;;;;;;;;;;-0.76296276;89.671005;-14.5497;;1955.8
2115.0;2024.1;;;;;;;;;;;;;;-0.22632527;0.8944365;-0.37702566;;;;;1955.8
2117.0;2025.1;209892;262143;7242;;;;;;;;;;;;;;;;;;
2117.0;2026.9;;;;;;;;;;16.129032;-55.730614;42.27958;;;;;;;;;
2117.0;2026.9;;;;;;;0.17340617;-0.8138066;0.1518601;;;;;;;;;;;;
2117.0;2026.9;;;;;;;;;;14.202551;-56.29139;42.542805;;;;;;;;;
2117.0;2026.9;;;;;;;0.17529832;-0.8173467;0.15204321;;;;;;;;;;;;
2117.0;2031.6;;;;-0.30643085;1.218033;-0.193306;;;;;;;;;;;;;;;
2117.0;2031.6;;;;-0.3073006;1.21373;-0.19149402;;;;;;;;;;;;;;;
2117.0;2031.6;;;;-0.30817035;1.2079393;-0.18921283;;;;;;;;;;;;;;;
2117.0;2031.6;;;;-0.30872348;1.2021524;-0.18803409;;;;;;;;;;;;;;;
2117.0;2031.6;;;;-0.30934146;1.1981317;-0.18550111;;;;;;;;;;;;;;;
2117.0;2036.5;;;;;;;;;;12.329478;-56.67287;42.855618;;;;;;;;;
2117.0;2036.5;;;;;;;0.17993714;-0.8197272;0.15277566;;;;;;;;;;;;
2117.0;2036.5;;;;;;;;;;10.467849;-56.920834;43.21421;;;;;;;;;
2117.0;2036.5;;;;;;;0.18292795;-0.8233284;0.15369122;;;;;;;;;;;;
2117.0;2041.6;;;;-0.30944446;1.1943704;-0.18373872;;;;;;;;;;;;;;;
2117.0;2041.6;;;;-0.3074608;1.1933366;-0.18063737;;;;;;;;;;;;;;;
2117.0;2041.6;;;;-0.30505756;1.1933557;-0.17822267;;;;;;;;;;;;;;;
2117.0;2041.6;;;;-0.3022957;1.1920244;-0.17549898;;;;;;;;;;;;;;;
2117.0;2041.6;;;;-0.30144122;1.1922609;-0.17327882;;;;;;;;;;;;;;;
2117.0;2045.3;209696;262143;7242;;;;;;;;;;;;;;;;;;
2172.0;2046.1;;;;;;;;;;8.621479;-56.939907;43.542286;;;;;;;;;
2172.0;2046.1;;;;;;;0.18848231;-0.8269295;0.1535081;;;;;;;;;;;;
2172.0;2046.1;;;;;;;;;;6.9544053;-56.73391;43.939026;;;;;;;;;
2172.0;2046.1;;;;;;;0.19360943;-0.8303476;0.15344706;;;;;;;;;;;;
2172.0;2051.2;;;;;;;;;;;;;1030;;;;;;;;
2172.0;2051.2;;;;;;;;;;;;;776;;;;;;;;
2172.0;2051.2;;;;;;;;;;;;;586;;;;;;;;
2172.0;2051.2;;;;;;;;;;;;;985;;;;;;;;
2172.0;2051.2;;;;;;;;;;;;;1605;;;;;;;;
2172.0;2051.7;;;;-0.29919055;1.1928636;-0.17098238;;;;;;;;;;;;;;;
2172.0;2051.7;;;;-0.297493;1.1936876;-0.16884233;;;;;;;;;;;;;;;
2172.0;2051.7;;;;-0.29571536;1.1944085;-0.16725923;;;;;;;;;;;;;;;
2172.0;2051.7;;;;-0.29253772;1.1952859;-0.16534044;;;;;;;;;;;;;;;
2172.0;2051.7;;;;-0.28984073;1.1967698;-0.1633072;;;;;;;;;;;;;;;
2172.0;2055.5;;;;;;;;;;5.2758875;-56.459244;44.30143;;;;;;;;;
2172.0;2055.5;;;;;;;0.19965209;-0.8350475;0.1525315;;;;;;;;;;;;
2172.0;2055.5;;;;;;;;;;3.6545916;-55.932796;44.75921;;;;;;;;;
2172.0;2055.5;;;;;;;0.20374157;-0.8393811;0.15308085;;;;;;;;;;;;
2172.0;2061.5;;;;-0.2871094;1.1988221;-0.16092302;;;;;;;;;;;;;;;
2172.0;2061.5;;;;-0.28444675;1.2002794;-0.15746309;;;;;;;;;;;;;;;
2172.0;2061.5;;;;-0.2813225;1.2020952;-0.15467836;;;;;;;;;;;;;;;
2172.0;2061.5;;;;-0.27756503;1.2043267;-0.1514969;;;;;;;;;;;;;;;
2172.0;2061.5;;;;-0.27391818;1.2060014;-0.14910509;;;;;;;;;;;;;;;
2172.0;2065.0;;;;;;;;;;2.0180366;-55.322426;45.167393;;;;;;;;;
2172.0;2065.0;;;;;;;0.20770897;-0.84377575;0.15295877;;;;;;;;;;;;
2172.0;2065.0;;;;;;;;;;0.48066652;-54.548023;45.583206;;;;;;;;;
2172.0;2065.0;;;;;;;0.20941801;-0.850734;0.15295877;;;;;;;;;;;;
2175.0;2065.3;209596;262143;7250;;;;;;;;;;;;;;;;;;
2175.0;2071.7;;;;-0.27011493;1.2071382;-0.14633943;;;;;;;;;;;;;;;
2175.0;2071.7;;;;-0.2660294;1.2099191;-0.14316942;;;;;;;;;;;;;;;
2175.0;2071.7;;;;-0.26109317;1.2123567;-0.1402855;;;;;;;;;;;;;;;
2175.0;2071.7;;;;-0.25625995;1.214348;-0.13798143;;;;;;;;;;;;;;;
2175.0;2071.7;;;;-0.25223163;1.216736;-0.13614275;;;;;;;;;;;;;;;
2175.0;2074.6;;;;;;;;;;-0.94225895;-53.86517;45.930355;;;;;;;;;
2175.0;2074.6;;;;;;;0.21216469;-0.8553728;0.15295877;;;;;;;;;;;;
2175.0;2074.6;;;;;;;;;;-2.2965178;-53.022095;46.304207;;;;;;;;;
2175.0;2074.6;;;;;;;0.21503341;-0.86239207;0.15247047;;;;;;;;;;;;
2175.0;2081.8;;;;-0.24884799;1.2186891;-0.13369371;;;;;;;;;;;;;;;
2175.0;2081.8;;;;-0.245163;1.2196046;-0.13137056;;;;;;;;;;;;;;;
2175.0;2081.8;;;;-0.24267581;1.22147;-0.12921907;;;;;;;;;;;;;;;
2175.0;2081.8;;;;-0.2404137;1.2225381;-0.12662889;;;;;;;;;;;;;;;
2175.0;2081.8;;;;-0.2383385;1.2232705;-0.12530519;;;;;;;;;;;;;;;
2177.0;2083.1;;;;;;;;;;;;;;;;;0.87740713;90.392006;-15.76281;;1965.4
2177.0;2083.1;;;;;;;;;;;;;;-0.24835964;0.8832667;-0.3945433;;;;;1965.4
2177.0;2083.1;;;;;;;;;;;;;;;;;3.1205175;91.11682;-17.303995;;1965.4
2177.0;2083.1;;;;;;;;;;;;;;-0.27942747;0.87490463;-0.41145054;;;;;1965.4
2177.0;2083.1;;;;;;;;;;;;;;;;;4.581591;92.09723;-19.295328;;1975.1
2177.0;2083.1;;;;;;;;;;;;;;-0.31336406;0.86233103;-0.41676077;;;;;1975.1
2177.0;2083.1;;;;;;;;;;;;;;;;;4.7265544;93.08145;-21.469772;;1975.1
2177.0;2083.1;;;;;;;;;;;;;;-0.3368633;0.84487444;-0.41749322;;;;;1975.1
2177.0;2083.1;;;;;;;;;;;;;;;;;1.3885921;94.29838;-23.957031;;1984.8
2177.0;2083.1;;;;;;;;;;;;;;-0.3471175;0.8123417;-0.41096225;;;;;1984.8
2177.0;2083.1;;;;;;;;;;;;;;;;;1.3695182;96.13712;-24.887844;;1984.8
2177.0;2083.1;;;;;;;;;;;;;;-0.39033175;0.8663595;-0.4629658;;;;;1984.8
2177.0;2084.0;;;;;;;;;;;;;;;;;14.805292;94.3556;-29.122288;;1994.4
2177.0;2084.0;;;;;;;;;;;;;;-0.5345012;0.92770165;-0.4308603;;;;;1994.4
2177.0;2084.0;;;;;;;;;;;;;;;;;8.919034;89.78545;-36.26362;;1994.4
2177.0;2084.0;;;;;;;;;;;;;;-0.5317545;0.82448804;-0.46766564;;;;;1994.4
2177.0;2084.0;;;;;;;;;;;;;;;;;9.521775;89.57182;-40.288246;;2004.1
2177.0;2084.0;;;;;;;;;;;;;;-0.5579394;0.819361;-0.48274177;;;;;2004.1
2177.0;2084.0;;;;;;;;;;;;;;;;;12.073886;91.21601;-43.572803;;2004.1
2177.0;2084.0;;;;;;;;;;;;;;-0.5757012;0.8336436;-0.4646138;;;;;2004.1
2177.0;2084.0;;;;;;;;;;;;;;;;;9.506516;90.277565;-46.365246;;2013.7
2177.0;2084.0;;;;;;;;;;;;;;-0.615009;0.85280925;-0.43690297;;;;;2013.7
2177.0;2084.0;;;;;;;;;;;;;;;;;8.835109;87.39357;-50.05417;;2013.7
2177.0;2084.0;;;;;;;;;;;;;;-0.63502914;0.88369393;-0.40565202;;;;;2013.7
2179.0;2084.1;;;;;;;;;;-3.6660361;-52.30491;46.55217;;;;;;;;;
2179.0;2084.1;;;;;;;0.21680349;-0.87118137;0.15405744;;;;;;;;;;;;
2179.0;2084.1;;;;;;;;;;-4.91348;-51.683094;46.75054;;;;;;;;;
2179.0;2084.1;;;;;;;0.21546067;-0.8791162;0.15405744;;;;;;;;;;;;
2179.0;2085.4;209712;262143;7268;;;;;;;;;;;;;;;;;;
2179.0;2091.3;;;;;;;;;;;;;1930;;;;;;;;
2179.0;2091.3;;;;;;;;;;;;;2250;;;;;;;;
2179.0;2091.3;;;;;;;;;;;;;2736;;;;;;;;
2179.0;2091.3;;;;;;;;;;;;;3068;;;;;;;;
2179.0;2091.3;;;;;;;;;;;;;2945;;;;;;;;
2179.0;2091.7;;;;-0.23604205;1.2234689;-0.122547165;;;;;;;;;;;;;;;
2179.0;2091.7;;;;-0.23427966;1.2234384;-0.11979677;;;;;;;;;;;;;;;
2179.0;2091.7;;;;-0.23300555;1.2229158;-0.1172867;;;;;;;;;;;;;;;
2179.0;2091.7;;;;-0.23124698;1.2227517;-0.114841476;;;;;;;;;;;;;;;
2179.0;2091.7;;;;-0.22925189;1.221325;-0.111698166;;;;;;;;;;;;;;;
2179.0;2093.8;;;;;;;;;;-6.126591;-51.065094;46.93747;;;;;;;;;
2179.0;2093.8;;;;;;;0.21442305;-0.8891873;0.15521714;;;;;;;;;;;;
2179.0;2093.8;;;;;;;;;;-7.271035;-50.473797;47.04428;;;;;;;;;
2179.0;2093.8;;;;;;;0.21539964;-0.8997467;0.15546128;;;;;;;;;;;;
2180.0;2098.1;;;;;;;;;;;;;;;;;6.645406;88.00012;-52.697838;;2023.3
2180.0;2098.1;;;;;;;;;;;;;;-0.6266671;0.8918119;-0.36713767;;;;;2023.3
2180.0;2098.1;;;;;;;;;;;;;;;;;3.4943693;89.091156;-53.651543;;2023.3
2180.0;2098.1;;;;;;;;;;;;;;-0.62050235;0.88570815;-0.33692434;;;;;2023.3
2180.0;2098.1;;;;;;;;;;;;;;;;;3.051851;87.04261;-55.249947;;2032.9
2180.0;2098.1;;;;;;;;;;;;;;-0.6225166;0.89815974;-0.3190405;;;;;2032.9
2180.0;2098.1;;;;;;;;;;;;;;;;;3.3341472;82.804344;-57.51213;;2032.9
2180.0;2098.1;;;;;;;;;;;;;;-0.6239814;0.91042817;-0.29535812;;;;;2032.9
2180.0;2098.1;;;;;;;;;;;;;;;;;2.3499253;77.50557;-60.27024;;2042.6
2180.0;2098.1;;;;;;;;;;;;;;-0.6266671;0.9126255;-0.26856288;;;;;2042.6
2180.0;2098.1;;;;;;;;;;;;;;;;;0.15259254;72.10379;-63.253426;;2042.6
2180.0;2098.1;;;;;;;;;;;;;;-0.6259346;0.9078036;-0.24958037;;;;;2042.6
2180.0;2101.6;;;;-0.22670367;1.218834;-0.10803224;;;;;;;;;;;;;;;
2180.0;2101.6;;;;-0.2237778;1.2165834;-0.10437013;;;;;;;;;;;;;;;
2180.0;2101.6;;;;-0.22107318;1.2137643;-0.10193254;;;;;;;;;;;;;;;
2180.0;2101.6;;;;-0.21912768;1.2107545;-0.10019685;;;;;;;;;;;;;;;
2180.0;2101.6;;;;-0.21695712;1.2073938;-0.098468795;;;;;;;;;;;;;;;
2180.0;2103.2;;;;;;;;;;-8.445998;-50.077057;47.021393;;;;;;;;;
2180.0;2103.2;;;;;;;0.21594897;-0.90786463;0.15668203;;;;;;;;;;;;
2180.0;2103.2;;;;;;;;;;-9.472182;-49.668873;46.922207;;;;;;;;;
2180.0;2103.2;;;;;;;0.21601;-0.9175085;0.1589404;;;;;;;;;;;;
2180.0;2105.4;209885;262143;7267;;;;;;;;;;;;;;;;;;
2230.0;2111.6;;;;-0.21472552;1.203518;-0.097705856;;;;;;;;;;;;;;;
2230.0;2111.6;;;;-0.21200183;1.2002336;-0.097217575;;;;;;;;;;;;;;;
2230.0;2111.6;;;;-0.20963672;1.1977693;-0.0977173;;;;;;;;;;;;;;;
2230.0;2111.6;;;;-0.20740512;1.1963731;-0.09951021;;;;;;;;;;;;;;;
2230.0;2111.6;;;;-0.20465091;1.1964837;-0.10190965;;;;;;;;;;;;;;;
2230.0;2112.5;;;;;;;;;;-10.448774;-49.27595;46.815395;;;;;;;;;
2230.0;2112.5;;;;;;;0.21497238;-0.9280068;0.16022217;;;;;;;;;;;;
2230.0;2112.5;;;;;;;;;;-11.387218;-48.98221;46.571247;;;;;;;;;
2230.0;2112.5;;;;;;;0.21497238;-0.9380169;0.16315195;;;;;;;;;;;;
2230.0;2121.5;;;;-0.20241931;1.1975442;-0.10462572;;;;;;;;;;;;;;;
2230.0;2121.5;;;;-0.19972613;1.2011644;-0.10808183;;;;;;;;;;;;;;;
2230.0;2121.5;;;;-0.1972008;1.2050363;-0.111518875;;;;;;;;;;;;;;;
2230.0;2121.5;;;;-0.19443515;1.2100297;-0.114784256;;;;;;;;;;;;;;;
2230.0;2121.5;;;;-0.1920357;1.215603;-0.11833574;;;;;;;;;;;;;;;
2230.0;2122.0;;;;;;;;;;-12.215034;-48.741875;46.300392;;;;;;;;;
2230.0;2122.0;;;;;;;0.2156438;-0.9467452;0.16559343;;;;;;;;;;;;
2230.0;2122.0;;;;;;;;;;-13.092441;-48.61217;45.937984;;;;;;;;;
2230.0;2122.0;;;;;;;0.21771905;-0.95107883;0.1693167;;;;;;;;;;;;
2230.0;2125.3;210116;262143;7270;;;;;;;;;;;;;;;;;;
2230.0;2131.3;;;;;;;;;;;;;2245;;;;;;;;
2230.0;2131.3;;;;;;;;;;;;;1791;;;;;;;;
2230.0;2131.3;;;;;;;;;;;;;2320;;;;;;;;
2230.0;2131.3;;;;;;;;;;;;;2546;;;;;;;;
2230.0;2131.3;;;;;;;;;;;;;144;;;;;;;;
2352.0;2131.6;;;;-0.18973544;1.2209855;-0.122150436;;;;;;;;;;;;;;;
2352.0;2131.6;;;;-0.18732072;1.2258531;-0.12571336;;;;;;;;;;;;;;;
2352.0;2131.6;;;;-0.1849518;1.2311403;-0.12901308;;;;;;;;;;;;;;;
2352.0;2131.6;;;;-0.18215562;1.2350427;-0.13243486;;;;;;;;;;;;;;;
2352.0;2131.6;;;;-0.17937852;1.2385331;-0.1350403;;;;;;;;;;;;;;;
2352.0;2131.7;;;;;;;;;;-13.809626;-48.425247;45.396282;;;;;;;;;
2352.0;2131.7;;;;;;;0.22168645;-0.9558397;0.17108676;;;;;;;;;;;;
2352.0;2131.7;;;;;;;;;;-14.580218;-48.29173;44.789726;;;;;;;;;
2352.0;2131.7;;;;;;;0.22296824;-0.9598071;0.17487106;;;;;;;;;;;;
2352.0;2141.3;;;;;;;;;;-15.25544;-48.387096;44.133583;;;;;;;;;
2352.0;2141.3;;;;;;;0.22437209;-0.96493423;0.17462692;;;;;;;;;;;;
2352.0;2141.3;;;;;;;;;;-15.87344;-48.40236;43.301952;;;;;;;;;
2352.0;2141.3;;;;;;;0.22571489;-0.9691458;0.17798395;;;;;;;;;;;;
2352.0;2141.7;;;;-0.17631151;1.2421418;-0.1378441;;;;;;;;;;;;;;;
2352.0;2141.7;;;;-0.17260744;1.2449838;-0.13984682;;;;;;;;;;;;;;;
2352.0;2141.7;;;;-0.16944124;1.2486268;-0.14167787;;;;;;;;;;;;;;;
2352.0;2141.7;;;;-0.16589738;1.2511369;-0.14300539;;;;;;;;;;;;;;;
2352.0;2141.7;;;;-0.16178514;1.2531396;-0.14344408;;;;;;;;;;;;;;;
2353.0;2143.2;;;;;;;;;;;;;;;;;-1.453444;67.468796;-65.782646;;2052.3
2353.0;2143.2;;;;;;;;;;;;;;-0.63954586;0.9054842;-0.22663045;;;;;2052.3
2353.0;2143.2;;;;;;;;;;;;;;;;;-2.7771842;64.64202;-68.78109;;2052.3
2353.0;2143.2;;;;;;;;;;;;;;-0.6609088;0.8955962;-0.20618305;;;;;2052.3
2353.0;2143.2;;;;;;;;;;;;;;;;;-3.9864802;63.409836;-72.48146;;2061.9
2353.0;2143.2;;;;;;;;;;;;;;-0.70027775;0.87978756;-0.19696645;;;;;2061.9
2353.0;2143.2;;;;;;;;;;;;;;;;;-4.0704064;63.917206;-76.5595;;2061.9
2353.0;2143.2;;;;;;;;;;;;;;-0.7459334;0.86684775;-0.1948912;;;;;2061.9
2353.0;2143.2;;;;;;;;;;;;;;;;;-2.6055179;65.12269;-81.2479;;2071.6
2353.0;2143.2;;;;;;;;;;;;;;-0.803003;0.8638569;-0.20954008;;;;;2071.6
2353.0;2143.2;;;;;;;;;;;;;;;;;0.6179998;66.682945;-86.77938;;2071.6
2353.0;2143.2;;;;;;;;;;;;;;-0.8699606;0.86831266;-0.23621327;;;;;2071.6
2353.0;2145.5;210180;262143;7262;;;;;;;;;;;;;;;;;;
2353.0;2150.8;;;;;;;;;;-16.552477;-48.55495;42.371136;;;;;;;;;
2353.0;2150.8;;;;;;;0.22656941;-0.97268593;0.17902158;;;;;;;;;;;;
2353.0;2150.8;;;;;;;;;;-17.239141;-48.821987;41.348766;;;;;;;;;
2353.0;2150.8;;;;;;;0.22772911;-0.9787896;0.17981505;;;;;;;;;;;;
2353.0;2151.7;;;;-0.15822221;1.2562867;-0.14362718;;;;;;;;;;;;;;;
2353.0;2151.7;;;;-0.15340044;1.2597734;-0.14367677;;;;;;;;;;;;;;;
2353.0;2151.7;;;;-0.15351869;1.2604715;-0.14264299;;;;;;;;;;;;;;;
2353.0;2151.7;;;;-0.15553285;1.2589151;-0.14052583;;;;;;;;;;;;;;;
2353.0;2151.7;;;;-0.15908433;1.2539445;-0.13849641;;;;;;;;;;;;;;;
2355.0;2158.6;;;;;;;;;;;;;;;;;6.3364053;68.65901;-92.864006;;2081.2
2355.0;2158.6;;;;;;;;;;;;;;-0.9412519;0.872219;-0.2840663;;;;;2081.2
2355.0;2158.6;;;;;;;;;;;;;;;;;13.82107;73.04605;-100.383;;2081.2
2355.0;2158.6;;;;;;;;;;;;;;-1.0325022;0.887112;-0.33759576;;;;;2081.2
2355.0;2158.6;;;;;;;;;;;;;;;;;20.260475;82.888275;-110.435036;;2090.9
2355.0;2158.6;;;;;;;;;;;;;;-1.1504868;0.9288614;-0.32831812;;;;;2090.9
2355.0;2158.6;;;;;;;;;;;;;;;;;25.681326;96.27445;-121.696365;;2090.9
2355.0;2158.6;;;;;;;;;;;;;;-1.3173009;0.9934996;-0.27613148;;;;;2090.9
2355.0;2158.6;;;;;;;;;;;;;;;;;28.359325;113.99426;-124.988556;;2100.4
2355.0;2158.6;;;;;;;;;;;;;;-1.4062929;1.0514237;-0.25977355;;;;;2100.4
2355.0;2158.6;;;;;;;;;;;;;;;;;28.454695;124.485;-124.988556;;2100.4
2355.0;2158.6;;;;;;;;;;;;;;-1.4669638;1.1158788;-0.19653921;;;;;2100.4
2355.0;2160.2;;;;;;;;;;-17.994476;-49.016544;40.208134;;;;;;;;;
2355.0;2160.2;;;;;;;0.23096408;-0.9838557;0.18213446;;;;;;;;;;;;
2355.0;2160.2;;;;;;;;;;-18.658255;-49.05469;38.903473;;;;;;;;;
2355.0;2160.2;;;;;;;0.23377179;-0.98873866;0.18659016;;;;;;;;;;;;
2355.0;2161.5;;;;-0.1611252;1.2469865;-0.13500978;;;;;;;;;;;;;;;
2355.0;2161.5;;;;-0.16402818;1.2380105;-0.13050844;;;;;;;;;;;;;;;
2355.0;2161.5;;;;-0.16811754;1.2261049;-0.12700655;;;;;;;;;;;;;;;
2355.0;2161.5;;;;-0.17084505;1.2124406;-0.120964065;;;;;;;;;;;;;;;
2355.0;2161.5;;;;-0.17216493;1.1973153;-0.11590196;;;;;;;;;;;;;;;
2355.0;2165.5;210225;262143;7271;;;;;;;;;;;;;;;;;;
2356.0;2169.8;;;;;;;;;;-19.299143;-49.153877;37.472916;;;;;;;;;
2356.0;2169.8;;;;;;;0.23364972;-0.9924619;0.18970306;;;;;;;;;;;;
2356.0;2169.8;;;;;;;;;;-19.928587;-49.23017;35.939358;;;;;;;;;
2356.0;2169.8;;;;;;;0.23706779;-0.997528;0.19122899;;;;;;;;;;;;
2356.0;2171.4;;;;;;;;;;;;;-6551;;;;;;;;
2356.0;2171.4;;;;;;;;;;;;;-15527;;;;;;;;
2356.0;2171.4;;;;;;;;;;;;;-20182;;;;;;;;
2356.0;2171.4;;;;;;;;;;;;;-15767;;;;;;;;
2356.0;2171.4;;;;;;;;;;;;;-4776;;;;;;;;
2356.0;2171.6;;;;-0.17351152;1.1808511;-0.110569015;;;;;;;;;;;;;;;
2356.0;2171.6;;;;-0.17489244;1.1620065;-0.10523988;;;;;;;;;;;;;;;
2356.0;2171.6;;;;-0.17653657;1.1413194;-0.099346176;;;;;;;;;;;;;;;
2356.0;2171.6;;;;-0.17787172;1.1201249;-0.094520584;;;;;;;;;;;;;;;
2356.0;2171.6;;;;-0.17839052;1.0978929;-0.08995057;;;;;;;;;;;;;;;
2356.0;2179.3;;;;;;;;;;-20.546587;-49.20347;34.26847;;;;;;;;;
2356.0;2179.3;;;;;;;0.24079104;-1.0014343;0.19269387;;;;;;;;;;;;
2356.0;2179.3;;;;;;;;;;-21.046328;-49.08521;32.555622;;;;;;;;;
2356.0;2179.3;;;;;;;0.24219489;-1.0049745;0.19275491;;;;;;;;;;;;
2356.0;2181.6;;;;-0.17814638;1.0758859;-0.08531953;;;;;;;;;;;;;;;
2356.0;2181.6;;;;-0.17679216;1.0534707;-0.08116532;;;;;;;;;;;;;;;
2356.0;2181.6;;;;-0.17443468;1.0308801;-0.07795716;;;;;;;;;;;;;;;
2356.0;2181.6;;;;-0.17117311;1.0080453;-0.07544709;;;;;;;;;;;;;;;
2356.0;2181.6;;;;-0.16815569;0.98627865;-0.07231904;;;;;;;;;;;;;;;
2356.0;2185.7;210302;262143;7258;;;;;;;;;;;;;;;;;;
2358.0;2188.9;;;;;;;;;;-21.61092;-48.95932;30.78173;;;;;;;;;
2358.0;2188.9;;;;;;;0.24182867;-1.0088809;0.19385357;;;;;;;;;;;;
2358.0;2188.9;;;;;;;;;;-22.091587;-48.947876;28.90103;;;;;;;;;
2358.0;2188.9;;;;;;;0.24219489;-1.0159612;0.19244972;;;;;;;;;;;;
2358.0;2191.7;;;;-0.16558458;0.9651643;-0.06951142;;;;;;;;;;;;;;;
2358.0;2191.7;;;;-0.16258623;0.94449246;-0.0681305;;;;;;;;;;;;;;;
2358.0;2191.7;;;;-0.15908052;0.925007;-0.06611634;;;;;;;;;;;;;;;
2358.0;2191.7;;;;-0.15631868;0.907467;-0.06576157;;;;;;;;;;;;;;;
2358.0;2191.7;;;;-0.153183;0.8910142;-0.06464768;;;;;;;;;;;;;;;
2358.0;2198.6;;;;;;;;;;-22.446363;-48.924988;27.016512;;;;;;;;;
2358.0;2198.6;;;;;;;0.24311045;-1.023896;0.1909238;;;;;;;;;;;;
2358.0;2198.6;;;;;;;;;;-22.808771;-48.764763;25.05188;;;;;;;;;
2358.0;2198.6;;;;;;;0.242378;-1.0350047;0.18897061;;;;;;;;;;;;
2358.0;2201.9;;;;-0.15015794;0.87567914;-0.06392289;;;;;;;;;;;;;;;
2358.0;2201.9;;;;-0.14878847;0.8627206;-0.065094;;;;;;;;;;;;;;;
2358.0;2201.9;;;;-0.14694597;0.850731;-0.0661049;;;;;;;;;;;;;;;
2358.0;2201.9;;;;-0.14536668;0.8404428;-0.06733704;;;;;;;;;;;;;;;
2358.0;2201.9;;;;-0.14347841;0.8316041;-0.0698433;;;;;;;;;;;;;;;
2359.0;2203.5;;;;;;;;;;;;;;;;;27.760399;124.988556;-124.988556;;2110.0
2359.0;2203.5;;;;;;;;;;;;;;-1.6202887;1.2577288;-0.13019197;;;;;2110.0
2359.0;2203.5;;;;;;;;;;;;;;;;;30.102694;124.988556;-124.988556;;2110.0
2359.0;2203.5;;;;;;;;;;;;;;-1.7596972;1.3744926;-0.12115848;;;;;2110.0
2359.0;2203.5;;;;;;;;;;;;;;;;;24.960325;124.988556;-124.988556;;2119.7
2359.0;2203.5;;;;;;;;;;;;;;-1.8743248;1.5786614;0.04589984;;;;;2119.7
2359.0;2203.5;;;;;;;;;;;;;;;;;12.432477;124.988556;-124.988556;;2119.7
2359.0;2203.5;;;;;;;;;;;;;;-1.9300516;1.7072054;0.107058935;;;;;2119.7
2359.0;2203.5;;;;;;;;;;;;;;;;;1.106296;124.988556;-124.988556;;2129.3
2359.0;2203.5;;;;;;;;;;;;;;-1.7189245;1.7468795;0.23572497;;;;;2129.3
2359.0;2203.5;;;;;;;;;;;;;;;;;-2.0561848;124.988556;-124.988556;;2129.3
2359.0;2203.5;;;;;;;;;;;;;;-1.3713187;1.7368084;0.2760094;;;;;2129.3
2359.0;2205.8;210283;262143;7242;;;;;;;;;;;;;;;;;;
2359.0;2208.1;;;;;;;;;;-23.079622;-48.810543;22.90414;;;;;;;;;
2359.0;2208.1;;;;;;;0.24079104;-1.0440992;0.1864681;;;;;;;;;;;;
2359.0;2208.1;;;;;;;;;;-23.255104;-48.963135;20.706808;;;;;;;;;
2359.0;2208.1;;;;;;;0.2405469;-1.0685751;0.18610187;;;;;;;;;;;;
2359.0;2211.7;;;;;;;;;;;;;5317;;;;;;;;
2359.0;2211.7;;;;;;;;;;;;;9414;;;;;;;;
2359.0;2211.7;;;;;;;;;;;;;8764;;;;;;;;
2359.0;2211.7;;;;;;;;;;;;;7623;;;;;;;;
2359.0;2211.7;;;;;;;;;;;;;8345;;;;;;;;
2361.0;2211.8;;;;-0.14242555;0.8244668;-0.07235337;;;;;;;;;;;;;;;
2361.0;2211.8;;;;-0.14183427;0.8191148;-0.07479478;;;;;;;;;;;;;;;
2361.0;2211.8;;;;-0.14106752;0.8136331;-0.0775528;;;;;;;;;;;;;;;
2361.0;2211.8;;;;-0.13964845;0.8096849;-0.07988358;;;;;;;;;;;;;;;
2361.0;2211.8;;;;-0.1382599;0.8074914;-0.08222581;;;;;;;;;;;;;;;
2361.0;2217.7;;;;;;;;;;-22.949919;-49.493393;18.276772;;;;;;;;;
2361.0;2217.7;;;;;;;0.23712882;-1.0716269;0.18628499;;;;;;;;;;;;
2361.0;2217.7;;;;;;;;;;-22.476881;-50.15717;16.136662;;;;;;;;;
2361.0;2217.7;;;;;;;0.237434;-1.0629597;0.18274483;;;;;;;;;;;;
2361.0;2218.6;;;;;;;;;;;;;;;;;-0.17548142;124.988556;-124.988556;;2138.9
2361.0;2218.6;;;;;;;;;;;;;;-1.0913419;1.7844783;0.26868495;;;;;2138.9
2361.0;2218.6;;;;;;;;;;;;;;;;;4.482406;124.988556;-124.988556;;2138.9
2361.0;2218.6;;;;;;;;;;;;;;-0.875576;1.790704;0.2542802;;;;;2138.9
2361.0;2218.6;;;;;;;;;;;;;;;;;6.2906275;124.72915;-124.988556;;2148.6
2361.0;2218.6;;;;;;;;;;;;;;-0.5980407;1.7621387;0.22168645;;;;;2148.6
2361.0;2218.6;;;;;;;;;;;;;;;;;10.105441;120.63966;-124.988556;;2148.6
2361.0;2218.6;;;;;;;;;;;;;;-0.44782862;1.7997986;0.21387371;;;;;2148.6
2361.0;2218.6;;;;;;;;;;;;;;;;;15.163884;111.48793;-124.988556;;2158.1
2361.0;2218.6;;;;;;;;;;;;;;-0.33594775;1.8701743;0.21637623;;;;;2158.1
2361.0;2218.6;;;;;;;;;;;;;;;;;18.63918;97.357864;-124.988556;;2158.1
2361.0;2218.6;;;;;;;;;;;;;;-0.17969298;1.9789423;0.19263284;;;;;2158.1
2362.0;2221.8;;;;-0.13770677;0.80608;-0.08474351;;;;;;;;;;;;;;;
2362.0;2221.8;;;;-0.13705064;0.8052865;-0.08541108;;;;;;;;;;;;;;;
2362.0;2221.8;;;;-0.13658907;0.80594265;-0.086544044;;;;;;;;;;;;;;;
2362.0;2221.8;;;;-0.13560487;0.80703366;-0.08617402;;;;;;;;;;;;;;;
2362.0;2221.8;;;;-0.13531114;0.8086091;-0.08623124;;;;;;;;;;;;;;;
2362.0;2226.0;210310;262143;7243;;;;;;;;;;;;;;;;;;
2362.0;2227.2;;;;;;;;;;-22.663807;-49.92828;14.328441;;;;;;;;;
2362.0;2227.2;;;;;;;0.2512894;-1.0530107;0.18225653;;;;;;;;;;;;
2362.0;2227.2;;;;;;;;;;-23.083437;-49.4171;12.077701;;;;;;;;;
2362.0;2227.2;;;;;;;0.26038393;-1.0561845;0.18213446;;;;;;;;;;;;
2362.0;2231.9;;;;-0.13577272;0.81014264;-0.08618165;;;;;;;;;;;;;;;
2362.0;2231.9;;;;-0.13567735;0.81154263;-0.08482743;;;;;;;;;;;;;;;
2362.0;2231.9;;;;-0.13616945;0.8136102;-0.08292771;;;;;;;;;;;;;;;
2362.0;2231.9;;;;-0.13761522;0.81534207;-0.08039094;;;;;;;;;;;;;;;
2362.0;2231.9;;;;-0.13921739;0.8165666;-0.07772065;;;;;;;;;;;;;;;
2362.0;2236.8;;;;;;;;;;-23.369549;-49.287395;9.586627;;;;;;;;;
2362.0;2236.8;;;;;;;0.26093325;-1.0656453;0.18695639;;;;;;;;;;;;
2362.0;2236.8;;;;;;;;;;-23.182623;-49.35606;7.232887;;;;;;;;;
2362.0;2236.8;;;;;;;0.25446334;-1.0723594;0.18903165;;;;;;;;;;;;
2365.0;2242.0;;;;-0.14089204;0.81733716;-0.074371345;;;;;;;;;;;;;;;
2365.0;2242.0;;;;-0.14259721;0.8178674;-0.07118607;;;;;;;;;;;;;;;
2365.0;2242.0;;;;-0.14350511;0.8182832;-0.06789399;;;;;;;;;;;;;;;
2365.0;2242.0;;;;-0.14281465;0.8189279;-0.06423951;;;;;;;;;;;;;;;
2365.0;2242.0;;;;-0.13780595;0.820511;-0.070075996;;;;;;;;;;;;;;;
2365.0;2246.5;;;;;;;;;;-22.812586;-49.413284;5.043184;;;;;;;;;
2365.0;2246.5;;;;;;;0.25122836;-1.0777917;0.1902524;;;;;;;;;;;;
2365.0;2246.5;;;;;;;;;;-22.473066;-49.4171;3.0060732;;;;;;;;;
2365.0;2246.5;;;;;;;0.2527543;-1.0743736;0.19226661;;;;;;;;;;;;
2365.0;2246.2;210294;262143;7254;;;;;;;;;;;;;;;;;;
2365.0;2252.1;;;;;;;;;;;;;9836;;;;;;;;
2365.0;2252.1;;;;;;;;;;;;;11021;;;;;;;;
2365.0;2252.1;;;;;;;;;;;;;11956;;;;;;;;
2365.0;2252.1;;;;;;;;;;;;;12089;;;;;;;;
2365.0;2252.1;;;;;;;;;;;;;11470;;;;;;;;
2365.0;2252.2;;;;-0.15363695;0.8316308;-0.06965638;;;;;;;;;;;;;;;
2365.0;2252.2;;;;-0.13946153;0.81214917;-0.037895206;;;;;;;;;;;;;;;
2365.0;2252.2;;;;-0.1286545;0.81694424;-0.049179085;;;;;;;;;;;;;;;
2365.0;2252.2;;;;-0.13352586;0.82044995;-0.059062965;;;;;;;;;;;;;;;
2365.0;2252.2;;;;-0.1364441;0.81967175;-0.054943092;;;;;;;;;;;;;;;
2365.0;2256.1;;;;;;;;;;-22.12592;-49.24543;0.67903686;;;;;;;;;
2365.0;2256.1;;;;;;;0.2569048;-1.0711997;0.19556262;;;;;;;;;;;;
2365.0;2256.1;;;;;;;;;;-21.835995;-49.157692;-1.6747032;;;;;;;;;
2365.0;2256.1;;;;;;;0.2567217;-1.0639362;0.20111698;;;;;;;;;;;;
2366.0;2262.3;;;;-0.13918687;0.82104886;-0.046802524;;;;;;;;;;;;;;;
2366.0;2262.3;;;;-0.15034868;0.8247186;-0.034175877;;;;;;;;;;;;;;;
2366.0;2262.3;;;;-0.15613176;0.82740414;-0.018131258;;;;;;;;;;;;;;;
2366.0;2262.3;;;;-0.16154863;0.82667935;-0.0037384038;;;;;;;;;;;;;;;
2366.0;2262.3;;;;-0.16120149;0.82628644;0.0095253;;;;;;;;;;;;;;;
2366.0;2264.0;;;;;;;;;;;;;;;;;21.038698;78.99716;-124.988556;;2167.7
2366.0;2264.0;;;;;;;;;;;;;;-0.01208533;1.9979857;0.13715018;;;;;2167.7
2366.0;2264.0;;;;;;;;;;;;;;;;;25.749992;52.587208;-124.988556;;2167.7
2366.0;2264.0;;;;;;;;;;;;;;0.16827907;1.9979857;0.06280709;;;;;2167.7
2366.0;2264.0;;;;;;;;;;;;;;;;;35.22599;21.172216;-123.85937;;2177.4
2366.0;2264.0;;;;;;;;;;;;;;0.35346538;1.9979857;-0.054017764;;;;;2177.4
2366.0;2264.0;;;;;;;;;;;;;;;;;45.87695;-13.000885;-98.4489;;2177.4
2366.0;2264.0;;;;;;;;;;;;;;0.529252;1.9979857;-0.17084262;;;;;2177.4
2366.0;2264.0;;;;;;;;;;;;;;;;;50.233467;-51.904354;-49.5468;;2187.0
2366.0;2264.0;;;;;;;;;;;;;;0.5597095;1.8661458;-0.26026186;;;;;2187.0
2366.0;2264.0;;;;;;;;;;;;;;;;;50.969727;-88.10694;-29.095585;;2187.0
2366.0;2264.0;;;;;;;;;;;;;;0.61183506;1.4610431;-0.60072637;;;;;2187.0
2366.0;2265.6;;;;;;;;;;-21.33244;-49.256878;-3.9559617;;;;;;;;;
2366.0;2265.6;;;;;;;0.2548906;-1.055269;0.20422986;;;;;;;;;;;;
2366.0;2265.6;;;;;;;;;;-20.798365;-49.47432;-6.282998;;;;;;;;;
2366.0;2265.6;;;;;;;0.25208288;-1.0465407;0.2066103;;;;;;;;;;;;
2366.0;2266.4;210254;262143;7254;;;;;;;;;;;;;;;;;;
2367.0;2271.9;;;;;;;;;;;;;;;;;54.29243;-73.89676;-46.14017;;2196.6
2367.0;2271.9;;;;;;;;;;;;;;0.68581194;1.2896512;-0.6662801;;;;;2196.6
2367.0;2271.9;;;;;;;;;;;;;;;;;75.88046;-75.014496;-61.143833;;2196.6
2367.0;2271.9;;;;;;;;;;;;;;0.652974;1.2472914;-0.72060305;;;;;2196.6
